perceptual_result,group_1,stimuliShown,block,stim1,stim2,response,rt,reward,ID,stim_chosen,typeOfChoice,highChosen,riskChosen,forced,choices,win,correct,risky,trial,trial_cont,trial_id,trial_n,trigger_integer,new_block,trialIndex
overestimator,underestimator,13,1,1,3,1,0.9840647,59,1,3,2,0,NA,0,0,NA,0,NA,4,4,4,4,13,NA,4
overestimator,underestimator,13,1,1,3,0,1.1326143,63,1,1,2,1,NA,0,1,NA,1,NA,5,5,5,5,13,0,5
overestimator,underestimator,43,1,4,3,1,0.608768,55,1,3,6,NA,1,0,0,-1,NA,1,6,6,6,6,43,0,6
overestimator,underestimator,34,1,3,4,1,1.1309331,42,1,4,6,NA,0,0,0,-1,NA,0,7,7,7,7,34,0,7
overestimator,underestimator,42,1,4,2,0,1.1826298,41,1,4,5,0,NA,0,1,NA,0,NA,8,8,8,8,42,0,8
overestimator,underestimator,12,1,1,2,1,0.6281477,72,1,2,1,NA,0,0,0,1,NA,0,9,9,9,9,12,0,9
overestimator,underestimator,12,1,1,2,1,1.0904238,55,1,2,1,NA,0,0,0,1,NA,0,10,10,10,10,12,0,10
overestimator,underestimator,32,1,3,2,1,1.4507693,64,1,2,4,1,NA,0,0,NA,1,NA,11,11,11,11,32,0,11
overestimator,underestimator,34,1,3,4,0,1.1982601,29,1,3,6,NA,1,0,1,-1,NA,1,13,13,13,13,34,0,13
overestimator,underestimator,34,1,3,4,1,0.5994522,38,1,4,6,NA,0,0,0,-1,NA,0,14,14,14,14,34,0,14
overestimator,underestimator,32,1,3,2,1,1.1564967,53,1,2,4,1,NA,0,0,NA,1,NA,15,15,15,15,32,0,15
overestimator,underestimator,32,1,3,2,1,0.8418594,64,1,2,4,1,NA,0,0,NA,1,NA,16,16,16,16,32,0,16
overestimator,underestimator,42,1,4,2,1,0.8515357,61,1,2,5,1,NA,0,0,NA,1,NA,17,17,17,17,42,0,17
overestimator,underestimator,43,1,4,3,0,0.6650493,44,1,4,6,NA,0,0,1,-1,NA,0,18,18,18,18,43,0,18
overestimator,underestimator,14,1,1,4,0,1.4321454,64,1,1,3,1,NA,0,1,NA,1,NA,19,19,19,19,14,0,19
overestimator,underestimator,32,1,3,2,1,0.8826433,64,1,2,4,1,NA,0,0,NA,1,NA,21,21,21,21,32,0,21
overestimator,underestimator,43,1,4,3,1,1.0743156,21,1,3,6,NA,1,0,0,-1,NA,1,23,23,23,23,43,0,23
overestimator,underestimator,13,1,1,3,0,1.4068935,50,1,1,2,1,NA,0,1,NA,1,NA,24,24,24,24,13,0,24
overestimator,underestimator,24,1,2,4,0,1.0574537,62,1,2,5,1,NA,0,1,NA,1,NA,25,25,25,25,24,0,25
overestimator,underestimator,43,1,4,3,0,0.8723956,42,1,4,6,NA,0,0,1,-1,NA,0,26,26,26,26,43,0,26
overestimator,underestimator,32,1,3,2,1,0.8907312,57,1,2,4,1,NA,0,0,NA,1,NA,27,27,27,27,32,0,27
overestimator,underestimator,43,1,4,3,0,1.2279676,40,1,4,6,NA,0,0,1,-1,NA,0,28,28,28,28,43,0,28
overestimator,underestimator,14,1,1,4,0,1.1422737,73,1,1,3,1,NA,0,1,NA,1,NA,29,29,29,29,14,0,29
overestimator,underestimator,14,1,1,4,0,0.7526994,72,1,1,3,1,NA,0,1,NA,1,NA,30,30,30,30,14,0,30
overestimator,underestimator,14,1,1,4,0,0.5410119,73,1,1,3,1,NA,0,1,NA,1,NA,31,31,31,31,14,0,31
overestimator,underestimator,14,1,1,4,0,0.4520175,73,1,1,3,1,NA,0,1,NA,1,NA,32,32,32,32,14,0,32
overestimator,underestimator,24,1,2,4,0,0.8760802,57,1,2,5,1,NA,0,1,NA,1,NA,34,34,34,34,24,0,34
overestimator,underestimator,41,1,4,1,1,0.5649249,85,1,1,3,1,NA,0,0,NA,1,NA,35,35,35,35,41,0,35
overestimator,underestimator,31,1,3,1,1,0.8080419,72,1,1,2,1,NA,0,0,NA,1,NA,36,36,36,36,31,0,36
overestimator,underestimator,42,1,4,2,1,0.5401535,57,1,2,5,1,NA,0,0,NA,1,NA,37,37,37,37,42,0,37
overestimator,underestimator,24,1,2,4,0,0.6482889,64,1,2,5,1,NA,0,1,NA,1,NA,38,38,38,38,24,0,38
overestimator,underestimator,12,1,1,2,0,1.1493847,74,1,1,1,NA,1,0,1,1,NA,1,39,39,39,39,12,0,39
overestimator,underestimator,34,1,3,4,1,1.314682,36,1,4,6,NA,0,0,0,-1,NA,0,40,40,40,40,34,0,40
overestimator,underestimator,24,1,2,4,0,1.3426254,55,1,2,5,1,NA,0,1,NA,1,NA,41,41,41,41,24,0,41
overestimator,underestimator,41,1,4,1,1,0.6405912,78,1,1,3,1,NA,0,0,NA,1,NA,42,42,42,42,41,0,42
overestimator,underestimator,12,1,1,2,0,0.4447647,53,1,1,1,NA,1,0,1,1,NA,1,43,43,43,43,12,0,43
overestimator,underestimator,21,1,2,1,0,0.4669187,56,1,2,1,NA,0,0,1,1,NA,0,44,44,44,44,21,0,44
overestimator,underestimator,14,1,1,4,0,0.5013608,74,1,1,3,1,NA,0,1,NA,1,NA,45,45,45,45,14,0,45
overestimator,underestimator,31,1,3,1,1,1.2899903,72,1,1,2,1,NA,0,0,NA,1,NA,46,46,46,46,31,0,46
overestimator,underestimator,41,1,4,1,1,0.6167387,38,1,1,3,1,NA,0,0,NA,1,NA,47,47,47,47,41,0,47
overestimator,underestimator,12,1,1,2,0,0.9512847,68,1,1,1,NA,1,0,1,1,NA,1,49,49,49,49,12,0,49
overestimator,underestimator,42,1,4,2,1,0.7324723,58,1,2,5,1,NA,0,0,NA,1,NA,50,50,50,50,42,0,50
overestimator,underestimator,24,1,2,4,0,0.8001976,57,1,2,5,1,NA,0,1,NA,1,NA,51,51,51,51,24,0,51
overestimator,underestimator,42,1,4,2,1,0.5965228,62,1,2,5,1,NA,0,0,NA,1,NA,52,52,52,52,42,0,52
overestimator,underestimator,41,1,4,1,1,0.4414929,66,1,1,3,1,NA,0,0,NA,1,NA,53,53,53,53,41,0,53
overestimator,underestimator,21,1,2,1,1,0.4955872,64,1,1,1,NA,1,0,0,1,NA,1,54,54,54,54,21,0,54
overestimator,underestimator,32,1,3,2,1,0.8061451,55,1,2,4,1,NA,0,0,NA,1,NA,55,55,55,55,32,0,55
overestimator,underestimator,32,1,3,2,1,0.7051103,58,1,2,4,1,NA,0,0,NA,1,NA,56,56,56,56,32,0,56
overestimator,underestimator,42,1,4,2,1,0.5050029,54,1,2,5,1,NA,0,0,NA,1,NA,57,57,57,57,42,0,57
overestimator,underestimator,31,1,3,1,1,0.9772421,56,1,1,2,1,NA,0,0,NA,1,NA,58,58,58,58,31,0,58
overestimator,underestimator,13,1,1,3,0,0.5507575,75,1,1,2,1,NA,0,1,NA,1,NA,59,59,59,59,13,0,59
overestimator,underestimator,41,1,4,1,1,0.6671437,84,1,1,3,1,NA,0,0,NA,1,NA,60,60,60,60,41,0,60
overestimator,underestimator,24,1,2,4,0,0.7218842,52,1,2,5,1,NA,0,1,NA,1,NA,61,61,61,61,24,0,61
overestimator,underestimator,23,1,2,3,0,0.8425871,60,1,2,4,1,NA,0,1,NA,1,NA,62,62,62,62,23,0,62
overestimator,underestimator,43,1,4,3,0,1.4637801,47,1,4,6,NA,0,0,1,-1,NA,0,63,63,63,63,43,0,63
overestimator,underestimator,24,1,2,4,0,0.9262606,57,1,2,5,1,NA,0,1,NA,1,NA,64,64,64,64,24,0,64
overestimator,underestimator,13,1,1,3,0,0.829316,47,1,1,2,1,NA,0,1,NA,1,NA,65,65,65,65,13,0,65
overestimator,underestimator,43,1,4,3,0,1.1982517,36,1,4,6,NA,0,0,1,-1,NA,0,66,66,66,66,43,0,66
overestimator,underestimator,12,1,1,2,0,1.0528156,91,1,1,1,NA,1,0,1,1,NA,1,67,67,67,67,12,0,67
overestimator,underestimator,42,1,4,2,1,1.0214802,59,1,2,5,1,NA,0,0,NA,1,NA,68,68,68,68,42,0,68
overestimator,underestimator,14,1,1,4,0,0.6539449,83,1,1,3,1,NA,0,1,NA,1,NA,69,69,69,69,14,0,69
overestimator,underestimator,12,1,1,2,0,0.6280077,50,1,1,1,NA,1,0,1,1,NA,1,70,70,70,70,12,0,70
overestimator,underestimator,12,1,1,2,0,0.4783943,78,1,1,1,NA,1,0,1,1,NA,1,71,71,71,71,12,0,71
overestimator,underestimator,41,1,4,1,1,0.6390975,73,1,1,3,1,NA,0,0,NA,1,NA,72,72,72,72,41,0,72
overestimator,underestimator,43,1,4,3,0,1.3192807,52,1,4,6,NA,0,0,1,-1,NA,0,73,73,73,73,43,0,73
overestimator,underestimator,21,1,2,1,1,0.6417917,76,1,1,1,NA,1,0,0,1,NA,1,74,74,74,74,21,0,74
overestimator,underestimator,14,1,1,4,0,0.642546,70,1,1,3,1,NA,0,1,NA,1,NA,75,75,75,75,14,0,75
overestimator,underestimator,23,1,2,3,0,1.2569858,65,1,2,4,1,NA,0,1,NA,1,NA,76,76,76,76,23,0,76
overestimator,underestimator,31,1,3,1,1,0.8785051,30,1,1,2,1,NA,0,0,NA,1,NA,77,77,77,77,31,0,77
overestimator,underestimator,24,1,2,4,0,1.2537832,55,1,2,5,1,NA,0,1,NA,1,NA,78,78,78,78,24,0,78
overestimator,underestimator,31,1,3,1,1,0.548802,54,1,1,2,1,NA,0,0,NA,1,NA,79,79,79,79,31,0,79
overestimator,underestimator,41,1,4,1,1,0.5703513,90,1,1,3,1,NA,0,0,NA,1,NA,80,80,80,80,41,0,80
overestimator,underestimator,24,1,2,4,0,0.7138653,63,1,2,5,1,NA,0,1,NA,1,NA,81,81,81,81,24,0,81
overestimator,underestimator,41,1,4,1,1,0.4956996,88,1,1,3,1,NA,0,0,NA,1,NA,82,82,82,82,41,0,82
overestimator,underestimator,41,1,4,1,1,0.6054255,64,1,1,3,1,NA,0,0,NA,1,NA,83,83,83,83,41,0,83
overestimator,underestimator,13,1,1,3,0,0.8853673,27,1,1,2,1,NA,0,1,NA,1,NA,84,84,84,84,13,0,84
overestimator,underestimator,12,1,1,2,0,0.6838652,55,1,1,1,NA,1,0,1,1,NA,1,85,85,85,85,12,0,85
overestimator,underestimator,31,1,3,1,1,0.5428181,66,1,1,2,1,NA,0,0,NA,1,NA,86,86,86,86,31,0,86
overestimator,underestimator,23,1,2,3,1,0.853652,57,1,3,4,0,NA,0,0,NA,0,NA,88,88,88,88,23,0,88
overestimator,underestimator,13,1,1,3,0,1.033392,60,1,1,2,1,NA,0,1,NA,1,NA,89,89,89,89,13,0,89
overestimator,underestimator,34,1,3,4,1,1.345618,33,1,4,6,NA,0,0,0,-1,NA,0,90,90,90,90,34,0,90
overestimator,underestimator,32,1,3,2,0,1.2420642,56,1,3,4,0,NA,0,1,NA,0,NA,91,91,91,91,32,0,91
overestimator,underestimator,21,1,2,1,1,0.8865238,83,1,1,1,NA,1,0,0,1,NA,1,92,92,92,92,21,0,92
overestimator,underestimator,34,1,3,4,0,1.169815,20,1,3,6,NA,1,0,1,-1,NA,1,93,93,93,93,34,0,93
overestimator,underestimator,23,1,2,3,0,0.9665508,48,1,2,4,1,NA,0,1,NA,1,NA,94,94,94,94,23,0,94
overestimator,underestimator,13,1,1,3,0,0.8692212,72,1,1,2,1,NA,0,1,NA,1,NA,95,95,95,95,13,0,95
overestimator,underestimator,42,1,4,2,1,0.8625346,55,1,2,5,1,NA,0,0,NA,1,NA,96,96,96,96,42,0,96
overestimator,underestimator,43,1,4,3,1,1.391733,25,1,3,6,NA,1,0,0,-1,NA,1,97,97,97,97,43,0,97
overestimator,underestimator,23,1,2,3,0,0.7735356,62,1,2,4,1,NA,0,1,NA,1,NA,98,98,98,98,23,0,98
overestimator,underestimator,12,1,1,2,0,0.9193007,41,1,1,1,NA,1,0,1,1,NA,1,99,99,99,99,12,0,99
overestimator,underestimator,13,1,1,3,0,0.6297672,57,1,1,2,1,NA,0,1,NA,1,NA,100,100,100,100,13,0,100
overestimator,underestimator,32,1,3,2,1,0.9460445,50,1,2,4,1,NA,0,0,NA,1,NA,101,101,101,101,32,0,101
overestimator,underestimator,21,1,2,1,1,0.5374578,84,1,1,1,NA,1,0,0,1,NA,1,102,102,102,102,21,0,102
overestimator,underestimator,34,1,3,4,1,1.4496764,41,1,4,6,NA,0,0,0,-1,NA,0,103,103,103,103,34,0,103
overestimator,underestimator,34,1,3,4,1,0.8541636,36,1,4,6,NA,0,0,0,-1,NA,0,104,104,104,104,34,0,104
overestimator,underestimator,31,1,3,1,1,0.9622808,75,1,1,2,1,NA,0,0,NA,1,NA,105,105,105,105,31,0,105
overestimator,underestimator,14,1,1,4,0,0.6787034,62,1,1,3,1,NA,0,1,NA,1,NA,106,106,106,106,14,0,106
overestimator,underestimator,13,1,1,3,0,0.5986626,64,1,1,2,1,NA,0,1,NA,1,NA,107,107,107,107,13,0,107
overestimator,underestimator,23,1,2,3,0,1.3382997,51,1,2,4,1,NA,0,1,NA,1,NA,108,108,108,108,23,0,108
overestimator,underestimator,14,1,1,4,0,0.7757294,91,1,1,3,1,NA,0,1,NA,1,NA,109,109,109,109,14,0,109
overestimator,underestimator,32,1,3,2,1,1.1698102,55,1,2,4,1,NA,0,0,NA,1,NA,110,110,110,110,32,0,110
overestimator,underestimator,31,1,3,1,1,0.8565245,49,1,1,2,1,NA,0,0,NA,1,NA,111,111,111,111,31,0,111
overestimator,underestimator,12,1,1,2,0,0.6236393,75,1,1,1,NA,1,0,1,1,NA,1,112,112,112,112,12,0,112
overestimator,underestimator,23,1,2,3,0,1.2107402,60,1,2,4,1,NA,0,1,NA,1,NA,113,113,113,113,23,0,113
overestimator,underestimator,43,1,4,3,0,1.1330066,40,1,4,6,NA,0,0,1,-1,NA,0,114,114,114,114,43,0,114
overestimator,underestimator,41,1,4,1,1,0.5157945,60,1,1,3,1,NA,0,0,NA,1,NA,115,115,115,115,41,0,115
overestimator,underestimator,23,1,2,3,0,0.9365388,59,1,2,4,1,NA,0,1,NA,1,NA,116,116,116,116,23,0,116
overestimator,underestimator,31,1,3,1,1,0.5658825,79,1,1,2,1,NA,0,0,NA,1,NA,117,117,117,117,31,0,117
overestimator,underestimator,14,1,1,4,0,0.4772042,61,1,1,3,1,NA,0,1,NA,1,NA,118,118,118,118,14,0,118
overestimator,underestimator,14,1,1,4,0,0.6277713,88,1,1,3,1,NA,0,1,NA,1,NA,119,119,119,119,14,0,119
overestimator,underestimator,31,1,3,1,1,0.6392262,81,1,1,2,1,NA,0,0,NA,1,NA,120,120,120,120,31,0,120
overestimator,underestimator,14,1,1,4,0,0.4484522,97,1,1,3,1,NA,0,1,NA,1,NA,121,121,121,121,14,0,121
overestimator,underestimator,12,1,1,2,0,0.40268929999999997,53,1,1,1,NA,1,0,1,1,NA,1,122,122,122,122,12,0,122
overestimator,underestimator,42,1,4,2,1,1.1307104,58,1,2,5,1,NA,0,0,NA,1,NA,123,123,123,123,42,0,123
overestimator,underestimator,12,1,1,2,0,0.4538754,80,1,1,1,NA,1,0,1,1,NA,1,124,124,124,124,12,0,124
overestimator,underestimator,12,1,1,2,0,0.556608,45,1,1,1,NA,1,0,1,1,NA,1,125,125,125,125,12,0,125
overestimator,underestimator,21,1,2,1,1,0.416717,70,1,1,1,NA,1,0,0,1,NA,1,126,126,126,126,21,0,126
overestimator,underestimator,34,1,3,4,1,1.2118769,36,1,4,6,NA,0,0,0,-1,NA,0,127,127,127,127,34,0,127
overestimator,underestimator,13,1,1,3,0,0.5538585,81,1,1,2,1,NA,0,1,NA,1,NA,128,128,128,128,13,0,128
overestimator,underestimator,42,1,4,2,1,1.4249596,56,1,2,5,1,NA,0,0,NA,1,NA,129,129,129,129,42,0,129
overestimator,underestimator,24,1,2,4,0,1.2401356,63,1,2,5,1,NA,0,1,NA,1,NA,130,130,130,130,24,0,130
overestimator,underestimator,21,1,2,1,1,0.4684504,71,1,1,1,NA,1,0,0,1,NA,1,131,131,131,131,21,0,131
overestimator,underestimator,31,1,3,1,1,0.428874,73,1,1,2,1,NA,0,0,NA,1,NA,132,132,132,132,31,0,132
overestimator,underestimator,23,1,2,3,0,0.7168911,54,1,2,4,1,NA,0,1,NA,1,NA,133,133,133,133,23,0,133
overestimator,underestimator,32,1,3,2,1,0.937037,56,1,2,4,1,NA,0,0,NA,1,NA,134,134,134,134,32,0,134
overestimator,underestimator,24,1,2,4,0,0.8523265,50,1,2,5,1,NA,0,1,NA,1,NA,135,135,135,135,24,0,135
overestimator,underestimator,13,1,1,3,0,0.9477853,97,1,1,2,1,NA,0,1,NA,1,NA,136,136,136,136,13,0,136
overestimator,underestimator,23,1,2,3,0,0.8085451,57,1,2,4,1,NA,0,1,NA,1,NA,137,137,137,137,23,0,137
overestimator,underestimator,21,1,2,1,1,0.496857,75,1,1,1,NA,1,0,0,1,NA,1,138,138,138,138,21,0,138
overestimator,underestimator,31,1,3,1,1,0.6385987,79,1,1,2,1,NA,0,0,NA,1,NA,139,139,139,139,31,0,139
overestimator,underestimator,32,1,3,2,1,0.9619695,54,1,2,4,1,NA,0,0,NA,1,NA,140,140,140,140,32,0,140
overestimator,underestimator,21,1,2,1,1,0.8286851,54,1,1,1,NA,1,0,0,1,NA,1,141,141,141,141,21,0,141
overestimator,underestimator,21,1,2,1,1,0.4355093,59,1,1,1,NA,1,0,0,1,NA,1,142,142,142,142,21,0,142
overestimator,underestimator,31,1,3,1,1,0.4626429,66,1,1,2,1,NA,0,0,NA,1,NA,143,143,143,143,31,0,143
overestimator,underestimator,41,1,4,1,1,0.4508207,77,1,1,3,1,NA,0,0,NA,1,NA,144,144,144,144,41,0,144
overestimator,underestimator,23,1,2,3,0,0.7181179,56,1,2,4,1,NA,0,1,NA,1,NA,145,145,145,145,23,0,145
overestimator,underestimator,42,1,4,2,1,0.6375947,52,1,2,5,1,NA,0,0,NA,1,NA,146,146,146,146,42,0,146
overestimator,underestimator,24,1,2,4,0,0.7841353,57,1,2,5,1,NA,0,1,NA,1,NA,147,147,147,147,24,0,147
overestimator,underestimator,21,1,2,1,1,0.4514002,98,1,1,1,NA,1,0,0,1,NA,1,148,148,148,148,21,0,148
overestimator,underestimator,41,1,4,1,1,0.4522581,81,1,1,3,1,NA,0,0,NA,1,NA,149,149,149,149,41,0,149
overestimator,underestimator,13,1,1,3,0,0.4691007,57,1,1,2,1,NA,0,1,NA,1,NA,150,150,150,150,13,0,150
overestimator,underestimator,13,1,1,3,0,0.4779963,80,1,1,2,1,NA,0,1,NA,1,NA,151,151,151,151,13,0,151
overestimator,underestimator,31,1,3,1,1,0.3964222,70,1,1,2,1,NA,0,0,NA,1,NA,152,152,152,152,31,0,152
overestimator,underestimator,24,1,2,4,0,1.2123194,55,1,2,5,1,NA,0,1,NA,1,NA,153,153,153,153,24,0,153
overestimator,underestimator,43,1,4,3,0,0.9094059,39,1,4,6,NA,0,0,1,-1,NA,0,154,154,154,154,43,0,154
overestimator,underestimator,43,1,4,3,0,0.7590502,34,1,4,6,NA,0,0,1,-1,NA,0,155,155,155,155,43,0,155
overestimator,underestimator,42,1,4,2,1,1.1278875,60,1,2,5,1,NA,0,0,NA,1,NA,156,156,156,156,42,0,156
overestimator,underestimator,21,1,2,1,1,0.7534981,67,1,1,1,NA,1,0,0,1,NA,1,157,157,157,157,21,0,157
overestimator,underestimator,13,1,1,3,0,0.6611523,87,1,1,2,1,NA,0,1,NA,1,NA,158,158,158,158,13,0,158
overestimator,underestimator,14,1,1,4,0,0.6253685,49,1,1,3,1,NA,0,1,NA,1,NA,159,159,159,159,14,0,159
overestimator,underestimator,43,1,4,3,0,1.1012857,37,1,4,6,NA,0,0,1,-1,NA,0,160,160,160,160,43,0,160
overestimator,underestimator,42,1,4,2,1,0.6034524,63,1,2,5,1,NA,0,0,NA,1,NA,161,161,161,161,42,0,161
overestimator,underestimator,34,1,3,4,1,0.808742,42,1,4,6,NA,0,0,0,-1,NA,0,162,162,162,162,34,0,162
overestimator,underestimator,41,1,4,1,1,0.6923076,57,1,1,3,1,NA,0,0,NA,1,NA,163,163,163,163,41,0,163
overestimator,underestimator,43,1,4,3,0,1.0516589,38,1,4,6,NA,0,0,1,-1,NA,0,164,164,164,164,43,0,164
overestimator,underestimator,23,1,2,3,0,0.8616892,58,1,2,4,1,NA,0,1,NA,1,NA,165,165,165,165,23,0,165
overestimator,underestimator,42,1,4,2,1,0.7524287,55,1,2,5,1,NA,0,0,NA,1,NA,166,166,166,166,42,0,166
overestimator,underestimator,32,1,3,2,1,0.8346691,61,1,2,4,1,NA,0,0,NA,1,NA,167,167,167,167,32,0,167
overestimator,underestimator,42,1,4,2,1,0.8335996,59,1,2,5,1,NA,0,0,NA,1,NA,168,168,168,168,42,0,168
overestimator,underestimator,23,1,2,3,0,0.6804495,49,1,2,4,1,NA,0,1,NA,1,NA,169,169,169,169,23,0,169
overestimator,underestimator,12,1,1,2,1,0.6795903,61,1,2,1,NA,0,0,0,1,NA,0,170,170,170,170,12,0,170
overestimator,underestimator,41,1,4,1,1,0.6503872,66,1,1,3,1,NA,0,0,NA,1,NA,171,171,171,171,41,0,171
overestimator,underestimator,24,1,2,4,0,0.7146225,54,1,2,5,1,NA,0,1,NA,1,NA,173,173,173,173,24,0,173
overestimator,underestimator,41,1,4,1,1,0.6001205,80,1,1,3,1,NA,0,0,NA,1,NA,174,174,174,174,41,0,174
overestimator,underestimator,24,1,2,4,0,0.6823675,49,1,2,5,1,NA,0,1,NA,1,NA,175,175,175,175,24,0,175
overestimator,underestimator,32,1,3,2,1,0.9040577,50,1,2,4,1,NA,0,0,NA,1,NA,176,176,176,176,32,0,176
overestimator,underestimator,34,1,3,4,1,0.9504407,40,1,4,6,NA,0,0,0,-1,NA,0,177,177,177,177,34,0,177
overestimator,underestimator,32,1,3,2,1,0.8411113,66,1,2,4,1,NA,0,0,NA,1,NA,178,178,178,178,32,0,178
overestimator,underestimator,43,1,4,3,0,0.8827439,48,1,4,6,NA,0,0,1,-1,NA,0,179,179,179,179,43,0,179
overestimator,underestimator,23,1,2,3,0,0.8588212,59,1,2,4,1,NA,0,1,NA,1,NA,180,180,180,180,23,0,180
overestimator,underestimator,32,2,3,2,0,1.0926783,52,1,3,4,0,NA,0,1,NA,0,NA,2,2,182,2,32,1,2
overestimator,underestimator,12,2,1,2,0,1.2793437,72,1,1,1,NA,1,0,1,1,NA,1,3,3,183,3,12,0,3
overestimator,underestimator,14,2,1,4,1,1.3153202,46,1,4,3,0,NA,0,0,NA,0,NA,4,4,184,4,14,0,4
overestimator,underestimator,31,2,3,1,0,1.1169315,33,1,3,2,0,NA,0,1,NA,0,NA,6,6,186,6,31,0,6
overestimator,underestimator,42,2,4,2,0,1.2537472,44,1,4,5,0,NA,0,1,NA,0,NA,7,7,187,7,42,0,7
overestimator,underestimator,12,2,1,2,0,1.194542,49,1,1,1,NA,1,0,1,1,NA,1,8,8,188,8,12,0,8
overestimator,underestimator,13,2,1,3,1,0.6924689,39,1,3,2,0,NA,0,0,NA,0,NA,9,9,189,9,13,0,9
overestimator,underestimator,32,2,3,2,0,1.0950318000000001,46,1,3,4,0,NA,0,1,NA,0,NA,10,10,190,10,32,0,10
overestimator,underestimator,34,2,3,4,0,0.5005245,65,1,3,6,NA,1,0,1,-1,NA,1,11,11,191,11,34,0,11
overestimator,underestimator,34,2,3,4,0,0.8263975,73,1,3,6,NA,1,0,1,-1,NA,1,13,13,193,13,34,0,13
overestimator,underestimator,21,2,2,1,0,1.4237354,66,1,2,1,NA,0,0,1,1,NA,0,14,14,194,14,21,0,14
overestimator,underestimator,34,2,3,4,0,1.0224094,43,1,3,6,NA,1,0,1,-1,NA,1,15,15,195,15,34,0,15
overestimator,underestimator,42,2,4,2,0,0.9055883,28,1,4,5,0,NA,0,1,NA,0,NA,16,16,196,16,42,0,16
overestimator,underestimator,24,2,2,4,0,1.3604197,62,1,2,5,1,NA,0,1,NA,1,NA,17,17,197,17,24,0,17
overestimator,underestimator,42,2,4,2,1,1.3248335,66,1,2,5,1,NA,0,0,NA,1,NA,18,18,198,18,42,0,18
overestimator,underestimator,32,2,3,2,1,1.1643354,54,1,2,4,1,NA,0,0,NA,1,NA,19,19,199,19,32,0,19
overestimator,underestimator,23,2,2,3,1,1.4198213,43,1,3,4,0,NA,0,0,NA,0,NA,20,20,200,20,23,0,20
overestimator,underestimator,24,2,2,4,0,1.0916806,54,1,2,5,1,NA,0,1,NA,1,NA,21,21,201,21,24,0,21
overestimator,underestimator,24,2,2,4,0,1.0859155,60,1,2,5,1,NA,0,1,NA,1,NA,22,22,202,22,24,0,22
overestimator,underestimator,24,2,2,4,0,0.6120797,68,1,2,5,1,NA,0,1,NA,1,NA,23,23,203,23,24,0,23
overestimator,underestimator,12,2,1,2,0,1.3937656,81,1,1,1,NA,1,0,1,1,NA,1,24,24,204,24,12,0,24
overestimator,underestimator,24,2,2,4,0,1.0755762,61,1,2,5,1,NA,0,1,NA,1,NA,25,25,205,25,24,0,25
overestimator,underestimator,14,2,1,4,0,1.1192056,47,1,1,3,1,NA,0,1,NA,1,NA,27,27,207,27,14,0,27
overestimator,underestimator,41,2,4,1,1,0.7316034,65,1,1,3,1,NA,0,0,NA,1,NA,28,28,208,28,41,0,28
overestimator,underestimator,24,2,2,4,0,0.8416239,52,1,2,5,1,NA,0,1,NA,1,NA,29,29,209,29,24,0,29
overestimator,underestimator,31,2,3,1,1,0.8288265,62,1,1,2,1,NA,0,0,NA,1,NA,30,30,210,30,31,0,30
overestimator,underestimator,14,2,1,4,0,0.4787831,75,1,1,3,1,NA,0,1,NA,1,NA,31,31,211,31,14,0,31
overestimator,underestimator,21,2,2,1,1,0.7552154,75,1,1,1,NA,1,0,0,1,NA,1,32,32,212,32,21,0,32
overestimator,underestimator,13,2,1,3,0,0.7081337,67,1,1,2,1,NA,0,1,NA,1,NA,33,33,213,33,13,0,33
overestimator,underestimator,41,2,4,1,1,1.2245029,27,1,1,3,1,NA,0,0,NA,1,NA,35,35,215,35,41,0,35
overestimator,underestimator,31,2,3,1,1,1.099944,74,1,1,2,1,NA,0,0,NA,1,NA,36,36,216,36,31,0,36
overestimator,underestimator,41,2,4,1,1,0.6032081,84,1,1,3,1,NA,0,0,NA,1,NA,37,37,217,37,41,0,37
overestimator,underestimator,23,2,2,3,0,1.3056033,63,1,2,4,1,NA,0,1,NA,1,NA,38,38,218,38,23,0,38
overestimator,underestimator,23,2,2,3,0,0.6390868,62,1,2,4,1,NA,0,1,NA,1,NA,39,39,219,39,23,0,39
overestimator,underestimator,32,2,3,2,1,0.8131246,70,1,2,4,1,NA,0,0,NA,1,NA,40,40,220,40,32,0,40
overestimator,underestimator,12,2,1,2,1,0.4870325,67,1,2,1,NA,0,0,0,1,NA,0,41,41,221,41,12,0,41
overestimator,underestimator,31,2,3,1,1,1.0155351,71,1,1,2,1,NA,0,0,NA,1,NA,42,42,222,42,31,0,42
overestimator,underestimator,21,2,2,1,0,1.1036704,68,1,2,1,NA,0,0,1,1,NA,0,43,43,223,43,21,0,43
overestimator,underestimator,23,2,2,3,0,0.7671545,61,1,2,4,1,NA,0,1,NA,1,NA,44,44,224,44,23,0,44
overestimator,underestimator,23,2,2,3,0,0.655714,63,1,2,4,1,NA,0,1,NA,1,NA,45,45,225,45,23,0,45
overestimator,underestimator,12,2,1,2,1,0.8631631,65,1,2,1,NA,0,0,0,1,NA,0,46,46,226,46,12,0,46
overestimator,underestimator,12,2,1,2,1,0.9949645,51,1,2,1,NA,0,0,0,1,NA,0,48,48,228,48,12,0,48
overestimator,underestimator,34,2,3,4,1,1.1781494,45,1,4,6,NA,0,0,0,-1,NA,0,49,49,229,49,34,0,49
overestimator,underestimator,32,2,3,2,1,0.8662813,70,1,2,4,1,NA,0,0,NA,1,NA,50,50,230,50,32,0,50
overestimator,underestimator,31,2,3,1,1,0.5762999,76,1,1,2,1,NA,0,0,NA,1,NA,51,51,231,51,31,0,51
overestimator,underestimator,32,2,3,2,1,1.3110544,62,1,2,4,1,NA,0,0,NA,1,NA,52,52,232,52,32,0,52
overestimator,underestimator,21,2,2,1,1,0.8949827,68,1,1,1,NA,1,0,0,1,NA,1,53,53,233,53,21,0,53
overestimator,underestimator,23,2,2,3,0,0.6665217,59,1,2,4,1,NA,0,1,NA,1,NA,54,54,234,54,23,0,54
overestimator,underestimator,12,2,1,2,0,0.9716925,66,1,1,1,NA,1,0,1,1,NA,1,55,55,235,55,12,0,55
overestimator,underestimator,32,2,3,2,1,0.7030163,56,1,2,4,1,NA,0,0,NA,1,NA,56,56,236,56,32,0,56
overestimator,underestimator,42,2,4,2,1,0.6701076,61,1,2,5,1,NA,0,0,NA,1,NA,57,57,237,57,42,0,57
overestimator,underestimator,31,2,3,1,1,0.7525598,62,1,1,2,1,NA,0,0,NA,1,NA,58,58,238,58,31,0,58
overestimator,underestimator,24,2,2,4,0,0.4916687,55,1,2,5,1,NA,0,1,NA,1,NA,59,59,239,59,24,0,59
overestimator,underestimator,42,2,4,2,1,0.6601491,69,1,2,5,1,NA,0,0,NA,1,NA,60,60,240,60,42,0,60
overestimator,underestimator,13,2,1,3,0,0.8006768,66,1,1,2,1,NA,0,1,NA,1,NA,61,61,241,61,13,0,61
overestimator,underestimator,12,2,1,2,1,0.6130788,56,1,2,1,NA,0,0,0,1,NA,0,62,62,242,62,12,0,62
overestimator,underestimator,42,2,4,2,1,0.5552085,56,1,2,5,1,NA,0,0,NA,1,NA,63,63,243,63,42,0,63
overestimator,underestimator,42,2,4,2,1,0.542366,69,1,2,5,1,NA,0,0,NA,1,NA,64,64,244,64,42,0,64
overestimator,underestimator,31,2,3,1,1,0.3892414,68,1,1,2,1,NA,0,0,NA,1,NA,65,65,245,65,31,0,65
overestimator,underestimator,43,2,4,3,0,1.2355693,43,1,4,6,NA,0,0,1,-1,NA,0,66,66,246,66,43,0,66
overestimator,underestimator,21,2,2,1,1,1.1188699,71,1,1,1,NA,1,0,0,1,NA,1,67,67,247,67,21,0,67
overestimator,underestimator,13,2,1,3,0,1.3294727,78,1,1,2,1,NA,0,1,NA,1,NA,68,68,248,68,13,0,68
overestimator,underestimator,43,2,4,3,1,1.0485906,64,1,3,6,NA,1,0,0,-1,NA,1,70,70,250,70,43,0,70
overestimator,underestimator,13,2,1,3,0,0.8617114,44,1,1,2,1,NA,0,1,NA,1,NA,71,71,251,71,13,0,71
overestimator,underestimator,32,2,3,2,1,1.1044564,63,1,2,4,1,NA,0,0,NA,1,NA,72,72,252,72,32,0,72
overestimator,underestimator,41,2,4,1,1,1.0219455,82,1,1,3,1,NA,0,0,NA,1,NA,73,73,253,73,41,0,73
overestimator,underestimator,41,2,4,1,1,0.5643871,69,1,1,3,1,NA,0,0,NA,1,NA,74,74,254,74,41,0,74
overestimator,underestimator,41,2,4,1,1,1.2115886,74,1,1,3,1,NA,0,0,NA,1,NA,75,75,255,75,41,0,75
overestimator,underestimator,42,2,4,2,1,0.8038804,65,1,2,5,1,NA,0,0,NA,1,NA,76,76,256,76,42,0,76
overestimator,underestimator,21,2,2,1,1,0.7186826,98,1,1,1,NA,1,0,0,1,NA,1,77,77,257,77,21,0,77
overestimator,underestimator,31,2,3,1,1,0.4367156,56,1,1,2,1,NA,0,0,NA,1,NA,78,78,258,78,31,0,78
overestimator,underestimator,43,2,4,3,1,0.4774475,26,1,3,6,NA,1,0,0,-1,NA,1,80,80,260,80,43,0,80
overestimator,underestimator,32,2,3,2,1,1.0425557,71,1,2,4,1,NA,0,0,NA,1,NA,81,81,261,81,32,0,81
overestimator,underestimator,14,2,1,4,0,0.7908492,65,1,1,3,1,NA,0,1,NA,1,NA,82,82,262,82,14,0,82
overestimator,underestimator,41,2,4,1,1,0.9468513,63,1,1,3,1,NA,0,0,NA,1,NA,83,83,263,83,41,0,83
overestimator,underestimator,31,2,3,1,1,0.4154214,67,1,1,2,1,NA,0,0,NA,1,NA,84,84,264,84,31,0,84
overestimator,underestimator,23,2,2,3,0,1.1106433,52,1,2,4,1,NA,0,1,NA,1,NA,85,85,265,85,23,0,85
overestimator,underestimator,14,2,1,4,0,1.030442,72,1,1,3,1,NA,0,1,NA,1,NA,86,86,266,86,14,0,86
overestimator,underestimator,42,2,4,2,1,1.1245004,57,1,2,5,1,NA,0,0,NA,1,NA,88,88,268,88,42,0,88
overestimator,underestimator,42,2,4,2,1,0.7407437,52,1,2,5,1,NA,0,0,NA,1,NA,89,89,269,89,42,0,89
overestimator,underestimator,23,2,2,3,0,0.8417579,62,1,2,4,1,NA,0,1,NA,1,NA,90,90,270,90,23,0,90
overestimator,underestimator,21,2,2,1,0,0.7238899,58,1,2,1,NA,0,0,1,1,NA,0,91,91,271,91,21,0,91
overestimator,underestimator,13,2,1,3,0,0.9164444,91,1,1,2,1,NA,0,1,NA,1,NA,92,92,272,92,13,0,92
overestimator,underestimator,14,2,1,4,0,0.9038807,93,1,1,3,1,NA,0,1,NA,1,NA,94,94,274,94,14,0,94
overestimator,underestimator,43,2,4,3,0,1.469019,42,1,4,6,NA,0,0,1,-1,NA,0,95,95,275,95,43,0,95
overestimator,underestimator,12,2,1,2,1,0.7756114,58,1,2,1,NA,0,0,0,1,NA,0,96,96,276,96,12,0,96
overestimator,underestimator,14,2,1,4,0,0.5654389,73,1,1,3,1,NA,0,1,NA,1,NA,97,97,277,97,14,0,97
overestimator,underestimator,32,2,3,2,1,0.7031975,53,1,2,4,1,NA,0,0,NA,1,NA,98,98,278,98,32,0,98
overestimator,underestimator,31,2,3,1,1,0.9413226,60,1,1,2,1,NA,0,0,NA,1,NA,99,99,279,99,31,0,99
overestimator,underestimator,14,2,1,4,0,0.611788,51,1,1,3,1,NA,0,1,NA,1,NA,100,100,280,100,14,0,100
overestimator,underestimator,41,2,4,1,1,0.4327372,84,1,1,3,1,NA,0,0,NA,1,NA,101,101,281,101,41,0,101
overestimator,underestimator,42,2,4,2,1,0.673151,66,1,2,5,1,NA,0,0,NA,1,NA,102,102,282,102,42,0,102
overestimator,underestimator,13,2,1,3,0,1.1079501,79,1,1,2,1,NA,0,1,NA,1,NA,103,103,283,103,13,0,103
overestimator,underestimator,43,2,4,3,1,1.1319813,43,1,3,6,NA,1,0,0,-1,NA,1,104,104,284,104,43,0,104
overestimator,underestimator,31,2,3,1,1,0.8969555,62,1,1,2,1,NA,0,0,NA,1,NA,105,105,285,105,31,0,105
overestimator,underestimator,13,2,1,3,0,0.525805,63,1,1,2,1,NA,0,1,NA,1,NA,106,106,286,106,13,0,106
overestimator,underestimator,13,2,1,3,0,0.4247287,72,1,1,2,1,NA,0,1,NA,1,NA,107,107,287,107,13,0,107
overestimator,underestimator,14,2,1,4,0,0.6311554,76,1,1,3,1,NA,0,1,NA,1,NA,108,108,288,108,14,0,108
overestimator,underestimator,43,2,4,3,1,1.2154636,54,1,3,6,NA,1,0,0,-1,NA,1,109,109,289,109,43,0,109
overestimator,underestimator,32,2,3,2,1,0.9035357,63,1,2,4,1,NA,0,0,NA,1,NA,110,110,290,110,32,0,110
overestimator,underestimator,43,2,4,3,1,1.337736,25,1,3,6,NA,1,0,0,-1,NA,1,111,111,291,111,43,0,111
overestimator,underestimator,23,2,2,3,0,0.8251332,61,1,2,4,1,NA,0,1,NA,1,NA,112,112,292,112,23,0,112
overestimator,underestimator,43,2,4,3,0,0.870648,33,1,4,6,NA,0,0,1,-1,NA,0,113,113,293,113,43,0,113
overestimator,underestimator,13,2,1,3,0,1.1144992,69,1,1,2,1,NA,0,1,NA,1,NA,114,114,294,114,13,0,114
overestimator,underestimator,24,2,2,4,0,1.1995797,56,1,2,5,1,NA,0,1,NA,1,NA,115,115,295,115,24,0,115
overestimator,underestimator,41,2,4,1,1,0.636505,73,1,1,3,1,NA,0,0,NA,1,NA,116,116,296,116,41,0,116
overestimator,underestimator,24,2,2,4,0,0.7723261,65,1,2,5,1,NA,0,1,NA,1,NA,117,117,297,117,24,0,117
overestimator,underestimator,41,2,4,1,1,1.2162664,62,1,1,3,1,NA,0,0,NA,1,NA,118,118,298,118,41,0,118
overestimator,underestimator,23,2,2,3,0,1.0677189,62,1,2,4,1,NA,0,1,NA,1,NA,119,119,299,119,23,0,119
overestimator,underestimator,23,2,2,3,0,0.8491669,62,1,2,4,1,NA,0,1,NA,1,NA,120,120,300,120,23,0,120
overestimator,underestimator,43,2,4,3,0,1.2568034,38,1,4,6,NA,0,0,1,-1,NA,0,121,121,301,121,43,0,121
overestimator,underestimator,41,2,4,1,1,0.5887945,93,1,1,3,1,NA,0,0,NA,1,NA,122,122,302,122,41,0,122
overestimator,underestimator,31,2,3,1,1,0.5395642,52,1,1,2,1,NA,0,0,NA,1,NA,123,123,303,123,31,0,123
overestimator,underestimator,21,2,2,1,1,0.4034899,62,1,1,1,NA,1,0,0,1,NA,1,124,124,304,124,21,0,124
overestimator,underestimator,34,2,3,4,1,1.413521,41,1,4,6,NA,0,0,0,-1,NA,0,125,125,305,125,34,0,125
overestimator,underestimator,31,2,3,1,1,0.8992998,67,1,1,2,1,NA,0,0,NA,1,NA,126,126,306,126,31,0,126
overestimator,underestimator,12,2,1,2,1,0.883148,60,1,2,1,NA,0,0,0,1,NA,0,127,127,307,127,12,0,127
overestimator,underestimator,12,2,1,2,0,0.8117568,64,1,1,1,NA,1,0,1,1,NA,1,128,128,308,128,12,0,128
overestimator,underestimator,21,2,2,1,1,0.7751467,74,1,1,1,NA,1,0,0,1,NA,1,129,129,309,129,21,0,129
overestimator,underestimator,24,2,2,4,0,0.9263483,60,1,2,5,1,NA,0,1,NA,1,NA,130,130,310,130,24,0,130
overestimator,underestimator,13,2,1,3,0,1.0484776,64,1,1,2,1,NA,0,1,NA,1,NA,131,131,311,131,13,0,131
overestimator,underestimator,31,2,3,1,1,0.6700891,48,1,1,2,1,NA,0,0,NA,1,NA,132,132,312,132,31,0,132
overestimator,underestimator,12,2,1,2,0,1.133276,65,1,1,1,NA,1,0,1,1,NA,1,134,134,314,134,12,0,134
overestimator,underestimator,23,2,2,3,0,1.1483534,60,1,2,4,1,NA,0,1,NA,1,NA,135,135,315,135,23,0,135
overestimator,underestimator,34,2,3,4,0,1.066752,54,1,3,6,NA,1,0,1,-1,NA,1,136,136,316,136,34,0,136
overestimator,underestimator,14,2,1,4,0,0.9028622,65,1,1,3,1,NA,0,1,NA,1,NA,137,137,317,137,14,0,137
overestimator,underestimator,34,2,3,4,0,1.2783282,61,1,3,6,NA,1,0,1,-1,NA,1,138,138,318,138,34,0,138
overestimator,underestimator,23,2,2,3,0,1.1494454,60,1,2,4,1,NA,0,1,NA,1,NA,139,139,319,139,23,0,139
overestimator,underestimator,21,2,2,1,1,1.0748241,63,1,1,1,NA,1,0,0,1,NA,1,140,140,320,140,21,0,140
overestimator,underestimator,34,2,3,4,0,1.1169064,35,1,3,6,NA,1,0,1,-1,NA,1,141,141,321,141,34,0,141
overestimator,underestimator,14,2,1,4,0,0.7224786,78,1,1,3,1,NA,0,1,NA,1,NA,142,142,322,142,14,0,142
overestimator,underestimator,14,2,1,4,0,0.6396259,64,1,1,3,1,NA,0,1,NA,1,NA,143,143,323,143,14,0,143
overestimator,underestimator,43,2,4,3,1,1.1315263,21,1,3,6,NA,1,0,0,-1,NA,1,144,144,324,144,43,0,144
overestimator,underestimator,42,2,4,2,1,1.0325814,53,1,2,5,1,NA,0,0,NA,1,NA,145,145,325,145,42,0,145
overestimator,underestimator,13,2,1,3,1,1.0534614,34,1,3,2,0,NA,0,0,NA,0,NA,146,146,326,146,13,0,146
overestimator,underestimator,13,2,1,3,0,0.6896707,63,1,1,2,1,NA,0,1,NA,1,NA,147,147,327,147,13,0,147
overestimator,underestimator,43,2,4,3,1,1.1629369,37,1,3,6,NA,1,0,0,-1,NA,1,148,148,328,148,43,0,148
overestimator,underestimator,21,2,2,1,1,0.8498172,61,1,1,1,NA,1,0,0,1,NA,1,149,149,329,149,21,0,149
overestimator,underestimator,21,2,2,1,1,0.5424275,50,1,1,1,NA,1,0,0,1,NA,1,150,150,330,150,21,0,150
overestimator,underestimator,13,2,1,3,0,0.5908209,76,1,1,2,1,NA,0,1,NA,1,NA,151,151,331,151,13,0,151
overestimator,underestimator,14,2,1,4,0,0.686087,74,1,1,3,1,NA,0,1,NA,1,NA,152,152,332,152,14,0,152
overestimator,underestimator,24,2,2,4,0,0.991936,58,1,2,5,1,NA,0,1,NA,1,NA,153,153,333,153,24,0,153
overestimator,underestimator,14,2,1,4,0,0.9557164,78,1,1,3,1,NA,0,1,NA,1,NA,154,154,334,154,14,0,154
overestimator,underestimator,43,2,4,3,1,1.1845064,63,1,3,6,NA,1,0,0,-1,NA,1,155,155,335,155,43,0,155
overestimator,underestimator,12,2,1,2,0,0.6584205,48,1,1,1,NA,1,0,1,1,NA,1,156,156,336,156,12,0,156
overestimator,underestimator,42,2,4,2,1,1.0253698,49,1,2,5,1,NA,0,0,NA,1,NA,157,157,337,157,42,0,157
overestimator,underestimator,41,2,4,1,1,0.7273618,93,1,1,3,1,NA,0,0,NA,1,NA,158,158,338,158,41,0,158
overestimator,underestimator,42,2,4,2,1,0.8912814,58,1,2,5,1,NA,0,0,NA,1,NA,159,159,339,159,42,0,159
overestimator,underestimator,13,2,1,3,0,0.6911297,56,1,1,2,1,NA,0,1,NA,1,NA,160,160,340,160,13,0,160
overestimator,underestimator,12,2,1,2,0,0.9267386,48,1,1,1,NA,1,0,1,1,NA,1,161,161,341,161,12,0,161
overestimator,underestimator,24,2,2,4,0,1.1536418,63,1,2,5,1,NA,0,1,NA,1,NA,162,162,342,162,24,0,162
overestimator,underestimator,32,2,3,2,1,0.8826205,61,1,2,4,1,NA,0,0,NA,1,NA,163,163,343,163,32,0,163
overestimator,underestimator,23,2,2,3,0,0.6165292,61,1,2,4,1,NA,0,1,NA,1,NA,164,164,344,164,23,0,164
overestimator,underestimator,31,2,3,1,1,0.7186764,79,1,1,2,1,NA,0,0,NA,1,NA,165,165,345,165,31,0,165
overestimator,underestimator,21,2,2,1,1,0.5828255,72,1,1,1,NA,1,0,0,1,NA,1,166,166,346,166,21,0,166
overestimator,underestimator,32,2,3,2,1,1.223427,56,1,2,4,1,NA,0,0,NA,1,NA,167,167,347,167,32,0,167
overestimator,underestimator,41,2,4,1,1,0.9411436,68,1,1,3,1,NA,0,0,NA,1,NA,168,168,348,168,41,0,168
overestimator,underestimator,34,2,3,4,0,1.1490761,27,1,3,6,NA,1,0,1,-1,NA,1,169,169,349,169,34,0,169
overestimator,underestimator,34,2,3,4,0,1.1547441,30,1,3,6,NA,1,0,1,-1,NA,1,170,170,350,170,34,0,170
overestimator,underestimator,14,2,1,4,0,0.9595287,78,1,1,3,1,NA,0,1,NA,1,NA,171,171,351,171,14,0,171
overestimator,underestimator,32,2,3,2,1,0.8276261,60,1,2,4,1,NA,0,0,NA,1,NA,172,172,352,172,32,0,172
overestimator,underestimator,21,2,2,1,1,0.7267264,66,1,1,1,NA,1,0,0,1,NA,1,173,173,353,173,21,0,173
overestimator,underestimator,24,2,2,4,0,1.1053798,65,1,2,5,1,NA,0,1,NA,1,NA,174,174,354,174,24,0,174
overestimator,underestimator,32,2,3,2,1,0.6876694,68,1,2,4,1,NA,0,0,NA,1,NA,175,175,355,175,32,0,175
overestimator,underestimator,24,2,2,4,0,0.5798829,64,1,2,5,1,NA,0,1,NA,1,NA,176,176,356,176,24,0,176
overestimator,underestimator,42,2,4,2,1,0.615452,48,1,2,5,1,NA,0,0,NA,1,NA,177,177,357,177,42,0,177
overestimator,underestimator,12,2,1,2,1,0.7179597,60,1,2,1,NA,0,0,0,1,NA,0,178,178,358,178,12,0,178
overestimator,underestimator,24,2,2,4,0,0.8617052,59,1,2,5,1,NA,0,1,NA,1,NA,179,179,359,179,24,0,179
overestimator,underestimator,43,2,4,3,1,1.2405879,18,1,3,6,NA,1,0,0,-1,NA,1,180,180,360,180,43,0,180
overestimator,underestimator,42,3,4,2,1,1.3025328,49,1,2,5,1,NA,0,0,NA,1,NA,1,1,361,1,42,1,1
overestimator,underestimator,21,3,2,1,0,0.8707598,55,1,2,1,NA,0,0,1,1,NA,0,2,2,362,2,21,0,2
overestimator,underestimator,12,3,1,2,1,1.1093575,62,1,2,1,NA,0,0,0,1,NA,0,3,3,363,3,12,0,3
overestimator,underestimator,12,3,1,2,1,0.7779864,64,1,2,1,NA,0,0,0,1,NA,0,4,4,364,4,12,0,4
overestimator,underestimator,41,3,4,1,1,1.4244525,44,1,1,3,1,NA,0,0,NA,1,NA,5,5,365,5,41,0,5
overestimator,underestimator,21,3,2,1,0,0.9350017,57,1,2,1,NA,0,0,1,1,NA,0,6,6,366,6,21,0,6
overestimator,underestimator,31,3,3,1,0,1.0176117,7,1,3,2,0,NA,0,1,NA,0,NA,9,9,369,9,31,0,9
overestimator,underestimator,12,3,1,2,0,0.6121197,56,1,1,1,NA,1,0,1,1,NA,1,10,10,370,10,12,0,10
overestimator,underestimator,24,3,2,4,0,0.5275937,48,1,2,5,1,NA,0,1,NA,1,NA,11,11,371,11,24,0,11
overestimator,underestimator,41,3,4,1,1,1.144725,38,1,1,3,1,NA,0,0,NA,1,NA,12,12,372,12,41,0,12
overestimator,underestimator,13,3,1,3,0,1.01665,82,1,1,2,1,NA,0,1,NA,1,NA,13,13,373,13,13,0,13
overestimator,underestimator,42,3,4,2,0,1.4029738,41,1,4,5,0,NA,0,1,NA,0,NA,14,14,374,14,42,0,14
overestimator,underestimator,43,3,4,3,0,1.3083444,44,1,4,6,NA,0,0,1,-1,NA,0,15,15,375,15,43,0,15
overestimator,underestimator,21,3,2,1,0,0.7352247,63,1,2,1,NA,0,0,1,1,NA,0,17,17,377,17,21,0,17
overestimator,underestimator,24,3,2,4,0,0.8663977,60,1,2,5,1,NA,0,1,NA,1,NA,18,18,378,18,24,0,18
overestimator,underestimator,13,3,1,3,0,1.0044813,52,1,1,2,1,NA,0,1,NA,1,NA,19,19,379,19,13,0,19
overestimator,underestimator,12,3,1,2,1,0.9330386,62,1,2,1,NA,0,0,0,1,NA,0,20,20,380,20,12,0,20
overestimator,underestimator,14,3,1,4,0,1.1818295,82,1,1,3,1,NA,0,1,NA,1,NA,21,21,381,21,14,0,21
overestimator,underestimator,21,3,2,1,1,1.1247552,76,1,1,1,NA,1,0,0,1,NA,1,22,22,382,22,21,0,22
overestimator,underestimator,23,3,2,3,0,0.7648092,53,1,2,4,1,NA,0,1,NA,1,NA,23,23,383,23,23,0,23
overestimator,underestimator,34,3,3,4,1,1.2921057,47,1,4,6,NA,0,0,0,-1,NA,0,24,24,384,24,34,0,24
overestimator,underestimator,34,3,3,4,1,1.1621931,40,1,4,6,NA,0,0,0,-1,NA,0,25,25,385,25,34,0,25
overestimator,underestimator,31,3,3,1,1,0.9815241,54,1,1,2,1,NA,0,0,NA,1,NA,26,26,386,26,31,0,26
overestimator,underestimator,21,3,2,1,1,1.0700312,51,1,1,1,NA,1,0,0,1,NA,1,27,27,387,27,21,0,27
overestimator,underestimator,41,3,4,1,1,0.7615265,80,1,1,3,1,NA,0,0,NA,1,NA,28,28,388,28,41,0,28
overestimator,underestimator,23,3,2,3,0,0.6729598,58,1,2,4,1,NA,0,1,NA,1,NA,29,29,389,29,23,0,29
overestimator,underestimator,34,3,3,4,1,1.0577078,51,1,4,6,NA,0,0,0,-1,NA,0,30,30,390,30,34,0,30
overestimator,underestimator,31,3,3,1,1,0.7984908,46,1,1,2,1,NA,0,0,NA,1,NA,31,31,391,31,31,0,31
overestimator,underestimator,12,3,1,2,0,0.9904939,68,1,1,1,NA,1,0,1,1,NA,1,32,32,392,32,12,0,32
overestimator,underestimator,24,3,2,4,0,0.8404793,72,1,2,5,1,NA,0,1,NA,1,NA,33,33,393,33,24,0,33
overestimator,underestimator,12,3,1,2,1,1.127242,61,1,2,1,NA,0,0,0,1,NA,0,34,34,394,34,12,0,34
overestimator,underestimator,32,3,3,2,1,0.5951595,66,1,2,4,1,NA,0,0,NA,1,NA,35,35,395,35,32,0,35
overestimator,underestimator,13,3,1,3,0,0.9031119,78,1,1,2,1,NA,0,1,NA,1,NA,36,36,396,36,13,0,36
overestimator,underestimator,12,3,1,2,0,0.9021967,71,1,1,1,NA,1,0,1,1,NA,1,37,37,397,37,12,0,37
overestimator,underestimator,41,3,4,1,1,0.5432851,76,1,1,3,1,NA,0,0,NA,1,NA,38,38,398,38,41,0,38
overestimator,underestimator,31,3,3,1,1,0.5531088,53,1,1,2,1,NA,0,0,NA,1,NA,39,39,399,39,31,0,39
overestimator,underestimator,41,3,4,1,1,0.4931654,76,1,1,3,1,NA,0,0,NA,1,NA,40,40,400,40,41,0,40
overestimator,underestimator,34,3,3,4,1,1.1367591,46,1,4,6,NA,0,0,0,-1,NA,0,41,41,401,41,34,0,41
overestimator,underestimator,24,3,2,4,0,0.815575,55,1,2,5,1,NA,0,1,NA,1,NA,42,42,402,42,24,0,42
overestimator,underestimator,13,3,1,3,0,1.0433121,74,1,1,2,1,NA,0,1,NA,1,NA,43,43,403,43,13,0,43
overestimator,underestimator,14,3,1,4,0,0.8004894,78,1,1,3,1,NA,0,1,NA,1,NA,45,45,405,45,14,0,45
overestimator,underestimator,43,3,4,3,0,0.7688468,47,1,4,6,NA,0,0,1,-1,NA,0,46,46,406,46,43,0,46
overestimator,underestimator,42,3,4,2,1,0.6861838,58,1,2,5,1,NA,0,0,NA,1,NA,47,47,407,47,42,0,47
overestimator,underestimator,34,3,3,4,1,0.815069,41,1,4,6,NA,0,0,0,-1,NA,0,48,48,408,48,34,0,48
overestimator,underestimator,21,3,2,1,0,0.7546441,51,1,2,1,NA,0,0,1,1,NA,0,49,49,409,49,21,0,49
overestimator,underestimator,42,3,4,2,1,0.8248818,57,1,2,5,1,NA,0,0,NA,1,NA,50,50,410,50,42,0,50
overestimator,underestimator,31,3,3,1,1,0.6868023,38,1,1,2,1,NA,0,0,NA,1,NA,51,51,411,51,31,0,51
overestimator,underestimator,21,3,2,1,1,0.4685344,63,1,1,1,NA,1,0,0,1,NA,1,52,52,412,52,21,0,52
overestimator,underestimator,13,3,1,3,0,0.4945282,62,1,1,2,1,NA,0,1,NA,1,NA,53,53,413,53,13,0,53
overestimator,underestimator,32,3,3,2,1,1.1824932,56,1,2,4,1,NA,0,0,NA,1,NA,54,54,414,54,32,0,54
overestimator,underestimator,24,3,2,4,0,0.9085871,62,1,2,5,1,NA,0,1,NA,1,NA,55,55,415,55,24,0,55
overestimator,underestimator,23,3,2,3,0,0.7985016,62,1,2,4,1,NA,0,1,NA,1,NA,56,56,416,56,23,0,56
overestimator,underestimator,42,3,4,2,1,0.7418568,60,1,2,5,1,NA,0,0,NA,1,NA,57,57,417,57,42,0,57
overestimator,underestimator,14,3,1,4,0,0.6736581,64,1,1,3,1,NA,0,1,NA,1,NA,58,58,418,58,14,0,58
overestimator,underestimator,34,3,3,4,1,1.1410063,38,1,4,6,NA,0,0,0,-1,NA,0,59,59,419,59,34,0,59
overestimator,underestimator,14,3,1,4,0,0.6504291,76,1,1,3,1,NA,0,1,NA,1,NA,60,60,420,60,14,0,60
overestimator,underestimator,41,3,4,1,1,0.6530605,59,1,1,3,1,NA,0,0,NA,1,NA,61,61,421,61,41,0,61
overestimator,underestimator,24,3,2,4,0,0.8247909,70,1,2,5,1,NA,0,1,NA,1,NA,62,62,422,62,24,0,62
overestimator,underestimator,32,3,3,2,1,0.791907,65,1,2,4,1,NA,0,0,NA,1,NA,63,63,423,63,32,0,63
overestimator,underestimator,24,3,2,4,0,0.5417794,60,1,2,5,1,NA,0,1,NA,1,NA,64,64,424,64,24,0,64
overestimator,underestimator,24,3,2,4,0,0.5869153,60,1,2,5,1,NA,0,1,NA,1,NA,65,65,425,65,24,0,65
overestimator,underestimator,23,3,2,3,0,0.7112247,57,1,2,4,1,NA,0,1,NA,1,NA,66,66,426,66,23,0,66
overestimator,underestimator,31,3,3,1,1,0.6253365,70,1,1,2,1,NA,0,0,NA,1,NA,67,67,427,67,31,0,67
overestimator,underestimator,42,3,4,2,1,0.7569105,60,1,2,5,1,NA,0,0,NA,1,NA,68,68,428,68,42,0,68
overestimator,underestimator,34,3,3,4,1,1.0525243,42,1,4,6,NA,0,0,0,-1,NA,0,69,69,429,69,34,0,69
overestimator,underestimator,24,3,2,4,0,1.3115365,61,1,2,5,1,NA,0,1,NA,1,NA,70,70,430,70,24,0,70
overestimator,underestimator,41,3,4,1,1,0.6165527,49,1,1,3,1,NA,0,0,NA,1,NA,71,71,431,71,41,0,71
overestimator,underestimator,13,3,1,3,0,0.5117486,52,1,1,2,1,NA,0,1,NA,1,NA,72,72,432,72,13,0,72
overestimator,underestimator,31,3,3,1,1,0.4045965,62,1,1,2,1,NA,0,0,NA,1,NA,73,73,433,73,31,0,73
overestimator,underestimator,32,3,3,2,1,0.8709489,59,1,2,4,1,NA,0,0,NA,1,NA,74,74,434,74,32,0,74
overestimator,underestimator,12,3,1,2,1,0.9745107,61,1,2,1,NA,0,0,0,1,NA,0,75,75,435,75,12,0,75
overestimator,underestimator,43,3,4,3,0,1.3922323,40,1,4,6,NA,0,0,1,-1,NA,0,76,76,436,76,43,0,76
overestimator,underestimator,14,3,1,4,0,0.5780491,82,1,1,3,1,NA,0,1,NA,1,NA,77,77,437,77,14,0,77
overestimator,underestimator,12,3,1,2,0,0.5406897,55,1,1,1,NA,1,0,1,1,NA,1,78,78,438,78,12,0,78
overestimator,underestimator,23,3,2,3,0,0.8826036,61,1,2,4,1,NA,0,1,NA,1,NA,79,79,439,79,23,0,79
overestimator,underestimator,32,3,3,2,1,1.0400577,68,1,2,4,1,NA,0,0,NA,1,NA,80,80,440,80,32,0,80
overestimator,underestimator,14,3,1,4,0,0.7668074,77,1,1,3,1,NA,0,1,NA,1,NA,81,81,441,81,14,0,81
overestimator,underestimator,42,3,4,2,1,1.1839199,61,1,2,5,1,NA,0,0,NA,1,NA,82,82,442,82,42,0,82
overestimator,underestimator,34,3,3,4,1,1.2888104,40,1,4,6,NA,0,0,0,-1,NA,0,83,83,443,83,34,0,83
overestimator,underestimator,31,3,3,1,1,0.6909325,71,1,1,2,1,NA,0,0,NA,1,NA,84,84,444,84,31,0,84
overestimator,underestimator,32,3,3,2,1,0.9269081,56,1,2,4,1,NA,0,0,NA,1,NA,85,85,445,85,32,0,85
overestimator,underestimator,13,3,1,3,0,0.7577874,59,1,1,2,1,NA,0,1,NA,1,NA,86,86,446,86,13,0,86
overestimator,underestimator,41,3,4,1,1,0.552824,70,1,1,3,1,NA,0,0,NA,1,NA,87,87,447,87,41,0,87
overestimator,underestimator,24,3,2,4,0,0.8247374,51,1,2,5,1,NA,0,1,NA,1,NA,88,88,448,88,24,0,88
overestimator,underestimator,31,3,3,1,1,0.5030708,74,1,1,2,1,NA,0,0,NA,1,NA,89,89,449,89,31,0,89
overestimator,underestimator,23,3,2,3,0,0.7397475,56,1,2,4,1,NA,0,1,NA,1,NA,90,90,450,90,23,0,90
overestimator,underestimator,12,3,1,2,0,0.8679854,71,1,1,1,NA,1,0,1,1,NA,1,91,91,451,91,12,0,91
overestimator,underestimator,32,3,3,2,1,1.2467272,62,1,2,4,1,NA,0,0,NA,1,NA,92,92,452,92,32,0,92
overestimator,underestimator,21,3,2,1,1,1.1402014,71,1,1,1,NA,1,0,0,1,NA,1,93,93,453,93,21,0,93
overestimator,underestimator,42,3,4,2,1,0.93599,59,1,2,5,1,NA,0,0,NA,1,NA,94,94,454,94,42,0,94
overestimator,underestimator,23,3,2,3,0,0.5567534,48,1,2,4,1,NA,0,1,NA,1,NA,95,95,455,95,23,0,95
overestimator,underestimator,14,3,1,4,0,0.965589,53,1,1,3,1,NA,0,1,NA,1,NA,96,96,456,96,14,0,96
overestimator,underestimator,24,3,2,4,0,0.9105762,53,1,2,5,1,NA,0,1,NA,1,NA,97,97,457,97,24,0,97
overestimator,underestimator,32,3,3,2,1,0.7915707,61,1,2,4,1,NA,0,0,NA,1,NA,98,98,458,98,32,0,98
overestimator,underestimator,42,3,4,2,1,0.4416169,54,1,2,5,1,NA,0,0,NA,1,NA,99,99,459,99,42,0,99
overestimator,underestimator,41,3,4,1,1,0.8282445,41,1,1,3,1,NA,0,0,NA,1,NA,100,100,460,100,41,0,100
overestimator,underestimator,43,3,4,3,0,1.2528623,50,1,4,6,NA,0,0,1,-1,NA,0,101,101,461,101,43,0,101
overestimator,underestimator,14,3,1,4,0,0.7998016,63,1,1,3,1,NA,0,1,NA,1,NA,102,102,462,102,14,0,102
overestimator,underestimator,34,3,3,4,1,1.4183552,49,1,4,6,NA,0,0,0,-1,NA,0,103,103,463,103,34,0,103
overestimator,underestimator,41,3,4,1,1,0.6252255,73,1,1,3,1,NA,0,0,NA,1,NA,104,104,464,104,41,0,104
overestimator,underestimator,43,3,4,3,0,1.1020457,47,1,4,6,NA,0,0,1,-1,NA,0,105,105,465,105,43,0,105
overestimator,underestimator,24,3,2,4,0,1.1771263,63,1,2,5,1,NA,0,1,NA,1,NA,106,106,466,106,24,0,106
overestimator,underestimator,42,3,4,2,1,1.0487723,58,1,2,5,1,NA,0,0,NA,1,NA,107,107,467,107,42,0,107
overestimator,underestimator,34,3,3,4,1,1.2940437,43,1,4,6,NA,0,0,0,-1,NA,0,108,108,468,108,34,0,108
overestimator,underestimator,12,3,1,2,0,0.8849222,27,1,1,1,NA,1,0,1,1,NA,1,109,109,469,109,12,0,109
overestimator,underestimator,43,3,4,3,0,1.2994712,43,1,4,6,NA,0,0,1,-1,NA,0,110,110,470,110,43,0,110
overestimator,underestimator,43,3,4,3,0,1.0829349,49,1,4,6,NA,0,0,1,-1,NA,0,111,111,471,111,43,0,111
overestimator,underestimator,34,3,3,4,1,0.9072615,41,1,4,6,NA,0,0,0,-1,NA,0,112,112,472,112,34,0,112
overestimator,underestimator,31,3,3,1,1,1.2623638,50,1,1,2,1,NA,0,0,NA,1,NA,113,113,473,113,31,0,113
overestimator,underestimator,43,3,4,3,0,1.1302323,49,1,4,6,NA,0,0,1,-1,NA,0,114,114,474,114,43,0,114
overestimator,underestimator,14,3,1,4,0,0.6083532,45,1,1,3,1,NA,0,1,NA,1,NA,115,115,475,115,14,0,115
overestimator,underestimator,23,3,2,3,0,1.1158201,65,1,2,4,1,NA,0,1,NA,1,NA,116,116,476,116,23,0,116
overestimator,underestimator,21,3,2,1,1,0.775208,51,1,1,1,NA,1,0,0,1,NA,1,117,117,477,117,21,0,117
overestimator,underestimator,23,3,2,3,0,0.6143656,63,1,2,4,1,NA,0,1,NA,1,NA,118,118,478,118,23,0,118
overestimator,underestimator,42,3,4,2,1,0.5997577,60,1,2,5,1,NA,0,0,NA,1,NA,119,119,479,119,42,0,119
overestimator,underestimator,34,3,3,4,1,1.1783952,50,1,4,6,NA,0,0,0,-1,NA,0,120,120,480,120,34,0,120
overestimator,underestimator,43,3,4,3,0,1.1913736,42,1,4,6,NA,0,0,1,-1,NA,0,121,121,481,121,43,0,121
overestimator,underestimator,34,3,3,4,1,1.174972,49,1,4,6,NA,0,0,0,-1,NA,0,122,122,482,122,34,0,122
overestimator,underestimator,12,3,1,2,0,1.1725,92,1,1,1,NA,1,0,1,1,NA,1,123,123,483,123,12,0,123
overestimator,underestimator,41,3,4,1,1,0.5755908,94,1,1,3,1,NA,0,0,NA,1,NA,124,124,484,124,41,0,124
overestimator,underestimator,34,3,3,4,1,0.8117805,43,1,4,6,NA,0,0,0,-1,NA,0,125,125,485,125,34,0,125
overestimator,underestimator,14,3,1,4,0,0.4667075,53,1,1,3,1,NA,0,1,NA,1,NA,126,126,486,126,14,0,126
overestimator,underestimator,24,3,2,4,0,0.9019414,60,1,2,5,1,NA,0,1,NA,1,NA,127,127,487,127,24,0,127
overestimator,underestimator,21,3,2,1,1,0.5896888,69,1,1,1,NA,1,0,0,1,NA,1,128,128,488,128,21,0,128
overestimator,underestimator,14,3,1,4,0,0.5936731,50,1,1,3,1,NA,0,1,NA,1,NA,129,129,489,129,14,0,129
overestimator,underestimator,23,3,2,3,0,1.0077579,53,1,2,4,1,NA,0,1,NA,1,NA,130,130,490,130,23,0,130
overestimator,underestimator,42,3,4,2,1,0.7556231,60,1,2,5,1,NA,0,0,NA,1,NA,131,131,491,131,42,0,131
overestimator,underestimator,32,3,3,2,1,0.9745232,61,1,2,4,1,NA,0,0,NA,1,NA,132,132,492,132,32,0,132
overestimator,underestimator,32,3,3,2,1,0.8943221,62,1,2,4,1,NA,0,0,NA,1,NA,133,133,493,133,32,0,133
overestimator,underestimator,43,3,4,3,0,0.8467536,39,1,4,6,NA,0,0,1,-1,NA,0,134,134,494,134,43,0,134
overestimator,underestimator,42,3,4,2,1,0.5861703,62,1,2,5,1,NA,0,0,NA,1,NA,135,135,495,135,42,0,135
overestimator,underestimator,32,3,3,2,1,0.9615655,61,1,2,4,1,NA,0,0,NA,1,NA,136,136,496,136,32,0,136
overestimator,underestimator,13,3,1,3,0,0.8857281,52,1,1,2,1,NA,0,1,NA,1,NA,137,137,497,137,13,0,137
overestimator,underestimator,23,3,2,3,0,0.7887729,62,1,2,4,1,NA,0,1,NA,1,NA,138,138,498,138,23,0,138
overestimator,underestimator,42,3,4,2,1,0.4664437,68,1,2,5,1,NA,0,0,NA,1,NA,139,139,499,139,42,0,139
overestimator,underestimator,43,3,4,3,0,0.7736423,38,1,4,6,NA,0,0,1,-1,NA,0,140,140,500,140,43,0,140
overestimator,underestimator,43,3,4,3,0,1.1866334,37,1,4,6,NA,0,0,1,-1,NA,0,141,141,501,141,43,0,141
overestimator,underestimator,31,3,3,1,1,0.5914363,87,1,1,2,1,NA,0,0,NA,1,NA,142,142,502,142,31,0,142
overestimator,underestimator,34,3,3,4,1,0.7651249,46,1,4,6,NA,0,0,0,-1,NA,0,143,143,503,143,34,0,143
overestimator,underestimator,14,3,1,4,0,0.6420035,63,1,1,3,1,NA,0,1,NA,1,NA,144,144,504,144,14,0,144
overestimator,underestimator,21,3,2,1,1,0.4337942,64,1,1,1,NA,1,0,0,1,NA,1,145,145,505,145,21,0,145
overestimator,underestimator,41,3,4,1,1,0.4915946,51,1,1,3,1,NA,0,0,NA,1,NA,146,146,506,146,41,0,146
overestimator,underestimator,12,3,1,2,0,0.9530764,32,1,1,1,NA,1,0,1,1,NA,1,147,147,507,147,12,0,147
overestimator,underestimator,32,3,3,2,1,0.8532449,58,1,2,4,1,NA,0,0,NA,1,NA,148,148,508,148,32,0,148
overestimator,underestimator,23,3,2,3,0,0.8410773,59,1,2,4,1,NA,0,1,NA,1,NA,149,149,509,149,23,0,149
overestimator,underestimator,31,3,3,1,1,0.7032202,62,1,1,2,1,NA,0,0,NA,1,NA,150,150,510,150,31,0,150
overestimator,underestimator,12,3,1,2,0,0.7024818,57,1,1,1,NA,1,0,1,1,NA,1,151,151,511,151,12,0,151
overestimator,underestimator,24,3,2,4,0,1.2826004,60,1,2,5,1,NA,0,1,NA,1,NA,152,152,512,152,24,0,152
overestimator,underestimator,23,3,2,3,0,0.6664088,65,1,2,4,1,NA,0,1,NA,1,NA,153,153,513,153,23,0,153
overestimator,underestimator,41,3,4,1,1,0.7213824,90,1,1,3,1,NA,0,0,NA,1,NA,154,154,514,154,41,0,154
overestimator,underestimator,32,3,3,2,1,0.7328627,56,1,2,4,1,NA,0,0,NA,1,NA,155,155,515,155,32,0,155
overestimator,underestimator,13,3,1,3,0,0.7268524,58,1,1,2,1,NA,0,1,NA,1,NA,156,156,516,156,13,0,156
overestimator,underestimator,31,3,3,1,1,0.6433371,73,1,1,2,1,NA,0,0,NA,1,NA,157,157,517,157,31,0,157
overestimator,underestimator,43,3,4,3,0,0.9845182,36,1,4,6,NA,0,0,1,-1,NA,0,158,158,518,158,43,0,158
overestimator,underestimator,32,3,3,2,1,1.2006353,58,1,2,4,1,NA,0,0,NA,1,NA,159,159,519,159,32,0,159
overestimator,underestimator,21,3,2,1,1,0.7690143,43,1,1,1,NA,1,0,0,1,NA,1,160,160,520,160,21,0,160
overestimator,underestimator,43,3,4,3,0,0.9335749,39,1,4,6,NA,0,0,1,-1,NA,0,161,161,521,161,43,0,161
overestimator,underestimator,31,3,3,1,1,0.6601563,62,1,1,2,1,NA,0,0,NA,1,NA,162,162,522,162,31,0,162
overestimator,underestimator,24,3,2,4,0,0.8414288,62,1,2,5,1,NA,0,1,NA,1,NA,163,163,523,163,24,0,163
overestimator,underestimator,13,3,1,3,0,0.8466064,57,1,1,2,1,NA,0,1,NA,1,NA,164,164,524,164,13,0,164
overestimator,underestimator,13,3,1,3,0,0.6531857,65,1,1,2,1,NA,0,1,NA,1,NA,165,165,525,165,13,0,165
overestimator,underestimator,13,3,1,3,0,0.541893,59,1,1,2,1,NA,0,1,NA,1,NA,166,166,526,166,13,0,166
overestimator,underestimator,13,3,1,3,0,0.5740189,63,1,1,2,1,NA,0,1,NA,1,NA,167,167,527,167,13,0,167
overestimator,underestimator,41,3,4,1,1,0.6488765,47,1,1,3,1,NA,0,0,NA,1,NA,168,168,528,168,41,0,168
overestimator,underestimator,42,3,4,2,1,0.6025262,51,1,2,5,1,NA,0,0,NA,1,NA,169,169,529,169,42,0,169
overestimator,underestimator,14,3,1,4,0,0.6188898,38,1,1,3,1,NA,0,1,NA,1,NA,170,170,530,170,14,0,170
overestimator,underestimator,21,3,2,1,1,0.5068892,68,1,1,1,NA,1,0,0,1,NA,1,171,171,531,171,21,0,171
overestimator,underestimator,43,3,4,3,0,0.8999427,39,1,4,6,NA,0,0,1,-1,NA,0,172,172,532,172,43,0,172
overestimator,underestimator,31,3,3,1,1,0.8657565,60,1,1,2,1,NA,0,0,NA,1,NA,173,173,533,173,31,0,173
overestimator,underestimator,14,3,1,4,0,0.6026502,93,1,1,3,1,NA,0,1,NA,1,NA,174,174,534,174,14,0,174
overestimator,underestimator,32,3,3,2,1,1.3663046,61,1,2,4,1,NA,0,0,NA,1,NA,175,175,535,175,32,0,175
overestimator,underestimator,14,3,1,4,0,0.8011669,29,1,1,3,1,NA,0,1,NA,1,NA,176,176,536,176,14,0,176
overestimator,underestimator,21,3,2,1,1,0.8826751,36,1,1,1,NA,1,0,0,1,NA,1,177,177,537,177,21,0,177
overestimator,underestimator,23,3,2,3,0,0.5535262,62,1,2,4,1,NA,0,1,NA,1,NA,178,178,538,178,23,0,178
overestimator,underestimator,13,3,1,3,0,0.9690376,59,1,1,2,1,NA,0,1,NA,1,NA,179,179,539,179,13,0,179
overestimator,underestimator,21,3,2,1,0,0.6403862,53,1,2,1,NA,0,0,1,1,NA,0,180,180,540,180,21,0,180
underestimator,underestimator,31,1,3,1,1,0.6920676,56,2,1,2,1,NA,0,0,NA,1,NA,1,1,1,1,31,-2,1
underestimator,underestimator,31,1,3,1,1,0.5281801,45,2,1,2,1,NA,0,0,NA,1,NA,2,2,2,2,31,0,2
underestimator,underestimator,23,1,2,3,0,0.7397574,58,2,2,4,1,NA,0,1,NA,1,NA,3,3,3,3,23,0,3
underestimator,underestimator,13,1,1,3,0,0.7008089,70,2,1,2,1,NA,0,1,NA,1,NA,4,4,4,4,13,0,4
underestimator,underestimator,43,1,4,3,1,1.2115909,59,2,3,6,NA,1,0,0,-1,NA,1,5,5,5,5,43,0,5
underestimator,underestimator,23,1,2,3,0,0.5490719,62,2,2,4,1,NA,0,1,NA,1,NA,6,6,6,6,23,0,6
underestimator,underestimator,24,1,2,4,0,0.5136533,66,2,2,5,1,NA,0,1,NA,1,NA,7,7,7,7,24,0,7
underestimator,underestimator,43,1,4,3,1,0.793602,29,2,3,6,NA,1,0,0,-1,NA,1,8,8,8,8,43,0,8
underestimator,underestimator,42,1,4,2,1,0.6184992,53,2,2,5,1,NA,0,0,NA,1,NA,9,9,9,9,42,0,9
underestimator,underestimator,23,1,2,3,0,0.8131543,59,2,2,4,1,NA,0,1,NA,1,NA,10,10,10,10,23,0,10
underestimator,underestimator,34,1,3,4,1,0.974772,49,2,4,6,NA,0,0,0,-1,NA,0,11,11,11,11,34,0,11
underestimator,underestimator,13,1,1,3,0,0.5737516,65,2,1,2,1,NA,0,1,NA,1,NA,12,12,12,12,13,0,12
underestimator,underestimator,32,1,3,2,1,0.4399222,54,2,2,4,1,NA,0,0,NA,1,NA,13,13,13,13,32,0,13
underestimator,underestimator,21,1,2,1,1,0.8035408,55,2,1,1,NA,1,0,0,1,NA,1,14,14,14,14,21,0,14
underestimator,underestimator,12,1,1,2,0,0.6104699,48,2,1,1,NA,1,0,1,1,NA,1,15,15,15,15,12,0,15
underestimator,underestimator,43,1,4,3,1,0.8876989,53,2,3,6,NA,1,0,0,-1,NA,1,16,16,16,16,43,0,16
underestimator,underestimator,34,1,3,4,0,0.8491694,42,2,3,6,NA,1,0,1,-1,NA,1,17,17,17,17,34,0,17
underestimator,underestimator,14,1,1,4,0,0.495403,83,2,1,3,1,NA,0,1,NA,1,NA,18,18,18,18,14,0,18
underestimator,underestimator,21,1,2,1,0,0.639499,61,2,2,1,NA,0,0,1,1,NA,0,19,19,19,19,21,0,19
underestimator,underestimator,21,1,2,1,0,0.9132102,60,2,2,1,NA,0,0,1,1,NA,0,20,20,20,20,21,0,20
underestimator,underestimator,31,1,3,1,1,0.7477875,62,2,1,2,1,NA,0,0,NA,1,NA,21,21,21,21,31,0,21
underestimator,underestimator,23,1,2,3,0,0.5356696,63,2,2,4,1,NA,0,1,NA,1,NA,22,22,22,22,23,0,22
underestimator,underestimator,14,1,1,4,0,0.5402768,75,2,1,3,1,NA,0,1,NA,1,NA,23,23,23,23,14,0,23
underestimator,underestimator,43,1,4,3,1,0.6174164,67,2,3,6,NA,1,0,0,-1,NA,1,24,24,24,24,43,0,24
underestimator,underestimator,24,1,2,4,0,0.5142684,50,2,2,5,1,NA,0,1,NA,1,NA,25,25,25,25,24,0,25
underestimator,underestimator,41,1,4,1,1,0.5232967,88,2,1,3,1,NA,0,0,NA,1,NA,26,26,26,26,41,0,26
underestimator,underestimator,14,1,1,4,0,0.4898429,68,2,1,3,1,NA,0,1,NA,1,NA,27,27,27,27,14,0,27
underestimator,underestimator,14,1,1,4,0,0.4803923,49,2,1,3,1,NA,0,1,NA,1,NA,28,28,28,28,14,0,28
underestimator,underestimator,31,1,3,1,1,0.9268502,56,2,1,2,1,NA,0,0,NA,1,NA,29,29,29,29,31,0,29
underestimator,underestimator,32,1,3,2,1,0.7008183,56,2,2,4,1,NA,0,0,NA,1,NA,30,30,30,30,32,0,30
underestimator,underestimator,21,1,2,1,1,0.6645639,40,2,1,1,NA,1,0,0,1,NA,1,31,31,31,31,21,0,31
underestimator,underestimator,13,1,1,3,0,0.5532653,89,2,1,2,1,NA,0,1,NA,1,NA,32,32,32,32,13,0,32
underestimator,underestimator,43,1,4,3,1,0.9392105,44,2,3,6,NA,1,0,0,-1,NA,1,33,33,33,33,43,0,33
underestimator,underestimator,32,1,3,2,1,0.789366,63,2,2,4,1,NA,0,0,NA,1,NA,34,34,34,34,32,0,34
underestimator,underestimator,12,1,1,2,0,0.9399073,52,2,1,1,NA,1,0,1,1,NA,1,35,35,35,35,12,0,35
underestimator,underestimator,24,1,2,4,0,0.6093129,56,2,2,5,1,NA,0,1,NA,1,NA,36,36,36,36,24,0,36
underestimator,underestimator,12,1,1,2,0,1.1640865,76,2,1,1,NA,1,0,1,1,NA,1,37,37,37,37,12,0,37
underestimator,underestimator,32,1,3,2,1,0.7308501,62,2,2,4,1,NA,0,0,NA,1,NA,38,38,38,38,32,0,38
underestimator,underestimator,21,1,2,1,1,1.1083258,64,2,1,1,NA,1,0,0,1,NA,1,39,39,39,39,21,0,39
underestimator,underestimator,32,1,3,2,1,0.8887457,57,2,2,4,1,NA,0,0,NA,1,NA,40,40,40,40,32,0,40
underestimator,underestimator,21,1,2,1,1,0.8905177,81,2,1,1,NA,1,0,0,1,NA,1,41,41,41,41,21,0,41
underestimator,underestimator,43,1,4,3,1,0.9318853,9,2,3,6,NA,1,0,0,-1,NA,1,42,42,42,42,43,0,42
underestimator,underestimator,14,1,1,4,0,0.7590294,61,2,1,3,1,NA,0,1,NA,1,NA,43,43,43,43,14,0,43
underestimator,underestimator,21,1,2,1,1,0.7979241,48,2,1,1,NA,1,0,0,1,NA,1,44,44,44,44,21,0,44
underestimator,underestimator,23,1,2,3,0,0.7700352,66,2,2,4,1,NA,0,1,NA,1,NA,45,45,45,45,23,0,45
underestimator,underestimator,12,1,1,2,0,0.8823159,61,2,1,1,NA,1,0,1,1,NA,1,46,46,46,46,12,0,46
underestimator,underestimator,42,1,4,2,0,0.764487,36,2,4,5,0,NA,0,1,NA,0,NA,47,47,47,47,42,0,47
underestimator,underestimator,41,1,4,1,1,0.3819435,74,2,1,3,1,NA,0,0,NA,1,NA,48,48,48,48,41,0,48
underestimator,underestimator,43,1,4,3,1,0.7572683,69,2,3,6,NA,1,0,0,-1,NA,1,49,49,49,49,43,0,49
underestimator,underestimator,21,1,2,1,1,0.4482163,29,2,1,1,NA,1,0,0,1,NA,1,50,50,50,50,21,0,50
underestimator,underestimator,34,1,3,4,0,0.8365566,25,2,3,6,NA,1,0,1,-1,NA,1,51,51,51,51,34,0,51
underestimator,underestimator,12,1,1,2,0,0.7796325,57,2,1,1,NA,1,0,1,1,NA,1,52,52,52,52,12,0,52
underestimator,underestimator,24,1,2,4,0,0.9600494,61,2,2,5,1,NA,0,1,NA,1,NA,53,53,53,53,24,0,53
underestimator,underestimator,13,1,1,3,0,0.815815,47,2,1,2,1,NA,0,1,NA,1,NA,54,54,54,54,13,0,54
underestimator,underestimator,31,1,3,1,1,0.7283163,75,2,1,2,1,NA,0,0,NA,1,NA,55,55,55,55,31,0,55
underestimator,underestimator,34,1,3,4,0,0.910231,19,2,3,6,NA,1,0,1,-1,NA,1,56,56,56,56,34,0,56
underestimator,underestimator,42,1,4,2,1,1.0365963,64,2,2,5,1,NA,0,0,NA,1,NA,57,57,57,57,42,0,57
underestimator,underestimator,41,1,4,1,1,0.4433523,73,2,1,3,1,NA,0,0,NA,1,NA,58,58,58,58,41,0,58
underestimator,underestimator,42,1,4,2,1,0.553978,64,2,2,5,1,NA,0,0,NA,1,NA,59,59,59,59,42,0,59
underestimator,underestimator,21,1,2,1,1,0.7589631,82,2,1,1,NA,1,0,0,1,NA,1,60,60,60,60,21,0,60
underestimator,underestimator,41,1,4,1,1,0.5671879,32,2,1,3,1,NA,0,0,NA,1,NA,61,61,61,61,41,0,61
underestimator,underestimator,42,1,4,2,1,0.7119374,51,2,2,5,1,NA,0,0,NA,1,NA,62,62,62,62,42,0,62
underestimator,underestimator,23,1,2,3,0,0.7313176,55,2,2,4,1,NA,0,1,NA,1,NA,63,63,63,63,23,0,63
underestimator,underestimator,12,1,1,2,0,0.910208,82,2,1,1,NA,1,0,1,1,NA,1,64,64,64,64,12,0,64
underestimator,underestimator,41,1,4,1,1,0.4453101,42,2,1,3,1,NA,0,0,NA,1,NA,65,65,65,65,41,0,65
underestimator,underestimator,21,1,2,1,0,0.4100227,69,2,2,1,NA,0,0,1,1,NA,0,66,66,66,66,21,0,66
underestimator,underestimator,24,1,2,4,0,0.499836,52,2,2,5,1,NA,0,1,NA,1,NA,67,67,67,67,24,0,67
underestimator,underestimator,13,1,1,3,0,0.5011527,70,2,1,2,1,NA,0,1,NA,1,NA,68,68,68,68,13,0,68
underestimator,underestimator,13,1,1,3,0,0.5925341,58,2,1,2,1,NA,0,1,NA,1,NA,69,69,69,69,13,0,69
underestimator,underestimator,34,1,3,4,1,0.6626182,47,2,4,6,NA,0,0,0,-1,NA,0,70,70,70,70,34,0,70
underestimator,underestimator,41,1,4,1,1,0.6622625,67,2,1,3,1,NA,0,0,NA,1,NA,71,71,71,71,41,0,71
underestimator,underestimator,12,1,1,2,0,0.7014635,54,2,1,1,NA,1,0,1,1,NA,1,72,72,72,72,12,0,72
underestimator,underestimator,32,1,3,2,1,0.574497,69,2,2,4,1,NA,0,0,NA,1,NA,73,73,73,73,32,0,73
underestimator,underestimator,42,1,4,2,1,0.6339263,58,2,2,5,1,NA,0,0,NA,1,NA,74,74,74,74,42,0,74
underestimator,underestimator,23,1,2,3,0,0.6357563,66,2,2,4,1,NA,0,1,NA,1,NA,75,75,75,75,23,0,75
underestimator,underestimator,42,1,4,2,1,0.6698818,48,2,2,5,1,NA,0,0,NA,1,NA,76,76,76,76,42,0,76
underestimator,underestimator,42,1,4,2,1,0.4727774,62,2,2,5,1,NA,0,0,NA,1,NA,77,77,77,77,42,0,77
underestimator,underestimator,12,1,1,2,0,0.4833653,86,2,1,1,NA,1,0,1,1,NA,1,78,78,78,78,12,0,78
underestimator,underestimator,43,1,4,3,0,0.6991183,42,2,4,6,NA,0,0,1,-1,NA,0,79,79,79,79,43,0,79
underestimator,underestimator,24,1,2,4,0,0.634352,59,2,2,5,1,NA,0,1,NA,1,NA,80,80,80,80,24,0,80
underestimator,underestimator,34,1,3,4,1,0.5867114,47,2,4,6,NA,0,0,0,-1,NA,0,81,81,81,81,34,0,81
underestimator,underestimator,12,1,1,2,0,0.3900251,53,2,1,1,NA,1,0,1,1,NA,1,82,82,82,82,12,0,82
underestimator,underestimator,32,1,3,2,1,0.4999977,54,2,2,4,1,NA,0,0,NA,1,NA,83,83,83,83,32,0,83
underestimator,underestimator,23,1,2,3,0,0.5216869,58,2,2,4,1,NA,0,1,NA,1,NA,84,84,84,84,23,0,84
underestimator,underestimator,21,1,2,1,1,0.7453566,57,2,1,1,NA,1,0,0,1,NA,1,85,85,85,85,21,0,85
underestimator,underestimator,32,1,3,2,1,0.5928521,57,2,2,4,1,NA,0,0,NA,1,NA,86,86,86,86,32,0,86
underestimator,underestimator,13,1,1,3,0,0.6246116,60,2,1,2,1,NA,0,1,NA,1,NA,87,87,87,87,13,0,87
underestimator,underestimator,14,1,1,4,0,0.4704607,59,2,1,3,1,NA,0,1,NA,1,NA,88,88,88,88,14,0,88
underestimator,underestimator,12,1,1,2,0,0.7188622,47,2,1,1,NA,1,0,1,1,NA,1,89,89,89,89,12,0,89
underestimator,underestimator,41,1,4,1,1,0.5115345,84,2,1,3,1,NA,0,0,NA,1,NA,90,90,90,90,41,0,90
underestimator,underestimator,42,1,4,2,1,0.4939992,64,2,2,5,1,NA,0,0,NA,1,NA,91,91,91,91,42,0,91
underestimator,underestimator,31,1,3,1,1,0.5163382,77,2,1,2,1,NA,0,0,NA,1,NA,92,92,92,92,31,0,92
underestimator,underestimator,13,1,1,3,0,0.6827715,52,2,1,2,1,NA,0,1,NA,1,NA,93,93,93,93,13,0,93
underestimator,underestimator,24,1,2,4,0,0.4368684,62,2,2,5,1,NA,0,1,NA,1,NA,94,94,94,94,24,0,94
underestimator,underestimator,32,1,3,2,1,0.6343269,60,2,2,4,1,NA,0,0,NA,1,NA,95,95,95,95,32,0,95
underestimator,underestimator,32,1,3,2,1,0.4945827,53,2,2,4,1,NA,0,0,NA,1,NA,96,96,96,96,32,0,96
underestimator,underestimator,32,1,3,2,1,0.5004694,52,2,2,4,1,NA,0,0,NA,1,NA,97,97,97,97,32,0,97
underestimator,underestimator,13,1,1,3,0,0.623988,51,2,1,2,1,NA,0,1,NA,1,NA,98,98,98,98,13,0,98
underestimator,underestimator,21,1,2,1,0,0.5906818,61,2,2,1,NA,0,0,1,1,NA,0,99,99,99,99,21,0,99
underestimator,underestimator,43,1,4,3,0,0.8688472,34,2,4,6,NA,0,0,1,-1,NA,0,100,100,100,100,43,0,100
underestimator,underestimator,13,1,1,3,0,0.459114,27,2,1,2,1,NA,0,1,NA,1,NA,101,101,101,101,13,0,101
underestimator,underestimator,31,1,3,1,1,0.5620229,45,2,1,2,1,NA,0,0,NA,1,NA,102,102,102,102,31,0,102
underestimator,underestimator,23,1,2,3,0,0.695505,63,2,2,4,1,NA,0,1,NA,1,NA,103,103,103,103,23,0,103
underestimator,underestimator,41,1,4,1,1,0.6864666,72,2,1,3,1,NA,0,0,NA,1,NA,104,104,104,104,41,0,104
underestimator,underestimator,34,1,3,4,1,1.0803515,38,2,4,6,NA,0,0,0,-1,NA,0,105,105,105,105,34,0,105
underestimator,underestimator,31,1,3,1,1,0.7202135,66,2,1,2,1,NA,0,0,NA,1,NA,106,106,106,106,31,0,106
underestimator,underestimator,23,1,2,3,0,0.3643655,65,2,2,4,1,NA,0,1,NA,1,NA,107,107,107,107,23,0,107
underestimator,underestimator,24,1,2,4,0,0.845988,69,2,2,5,1,NA,0,1,NA,1,NA,108,108,108,108,24,0,108
underestimator,underestimator,23,1,2,3,0,0.6074525,61,2,2,4,1,NA,0,1,NA,1,NA,109,109,109,109,23,0,109
underestimator,underestimator,41,1,4,1,1,0.4344527,51,2,1,3,1,NA,0,0,NA,1,NA,110,110,110,110,41,0,110
underestimator,underestimator,43,1,4,3,0,1.208168,39,2,4,6,NA,0,0,1,-1,NA,0,111,111,111,111,43,0,111
underestimator,underestimator,31,1,3,1,1,0.5244693,36,2,1,2,1,NA,0,0,NA,1,NA,112,112,112,112,31,0,112
underestimator,underestimator,31,1,3,1,1,0.6370406,69,2,1,2,1,NA,0,0,NA,1,NA,113,113,113,113,31,0,113
underestimator,underestimator,24,1,2,4,0,0.5102296,67,2,2,5,1,NA,0,1,NA,1,NA,114,114,114,114,24,0,114
underestimator,underestimator,14,1,1,4,0,0.5417129,93,2,1,3,1,NA,0,1,NA,1,NA,115,115,115,115,14,0,115
underestimator,underestimator,13,1,1,3,0,0.5665868,65,2,1,2,1,NA,0,1,NA,1,NA,116,116,116,116,13,0,116
underestimator,underestimator,42,1,4,2,1,0.6194444,55,2,2,5,1,NA,0,0,NA,1,NA,117,117,117,117,42,0,117
underestimator,underestimator,34,1,3,4,0,0.8174542,22,2,3,6,NA,1,0,1,-1,NA,1,118,118,118,118,34,0,118
underestimator,underestimator,21,1,2,1,1,1.0599609,78,2,1,1,NA,1,0,0,1,NA,1,119,119,119,119,21,0,119
underestimator,underestimator,14,1,1,4,0,0.4703089,72,2,1,3,1,NA,0,1,NA,1,NA,120,120,120,120,14,0,120
underestimator,underestimator,31,1,3,1,1,0.8100617,55,2,1,2,1,NA,0,0,NA,1,NA,121,121,121,121,31,0,121
underestimator,underestimator,13,1,1,3,0,0.6918515,63,2,1,2,1,NA,0,1,NA,1,NA,122,122,122,122,13,0,122
underestimator,underestimator,34,1,3,4,1,0.7837567,44,2,4,6,NA,0,0,0,-1,NA,0,123,123,123,123,34,0,123
underestimator,underestimator,12,1,1,2,0,0.4487399,33,2,1,1,NA,1,0,1,1,NA,1,124,124,124,124,12,0,124
underestimator,underestimator,34,1,3,4,1,0.6958329,40,2,4,6,NA,0,0,0,-1,NA,0,125,125,125,125,34,0,125
underestimator,underestimator,32,1,3,2,1,0.6722081,70,2,2,4,1,NA,0,0,NA,1,NA,126,126,126,126,32,0,126
underestimator,underestimator,42,1,4,2,1,0.6168327,66,2,2,5,1,NA,0,0,NA,1,NA,127,127,127,127,42,0,127
underestimator,underestimator,34,1,3,4,1,0.7950297,31,2,4,6,NA,0,0,0,-1,NA,0,128,128,128,128,34,0,128
underestimator,underestimator,14,1,1,4,0,0.4659072,77,2,1,3,1,NA,0,1,NA,1,NA,129,129,129,129,14,0,129
underestimator,underestimator,14,1,1,4,0,0.4537056,38,2,1,3,1,NA,0,1,NA,1,NA,130,130,130,130,14,0,130
underestimator,underestimator,41,1,4,1,1,0.6003324,63,2,1,3,1,NA,0,0,NA,1,NA,131,131,131,131,41,0,131
underestimator,underestimator,23,1,2,3,0,0.8655775,57,2,2,4,1,NA,0,1,NA,1,NA,132,132,132,132,23,0,132
underestimator,underestimator,34,1,3,4,1,0.7360699,50,2,4,6,NA,0,0,0,-1,NA,0,133,133,133,133,34,0,133
underestimator,underestimator,13,1,1,3,0,0.5911844,37,2,1,2,1,NA,0,1,NA,1,NA,134,134,134,134,13,0,134
underestimator,underestimator,32,1,3,2,1,0.544084,55,2,2,4,1,NA,0,0,NA,1,NA,135,135,135,135,32,0,135
underestimator,underestimator,23,1,2,3,0,0.458127,63,2,2,4,1,NA,0,1,NA,1,NA,136,136,136,136,23,0,136
underestimator,underestimator,41,1,4,1,1,0.4127289,58,2,1,3,1,NA,0,0,NA,1,NA,137,137,137,137,41,0,137
underestimator,underestimator,31,1,3,1,1,0.5866735,73,2,1,2,1,NA,0,0,NA,1,NA,138,138,138,138,31,0,138
underestimator,underestimator,31,1,3,1,1,0.4713179,68,2,1,2,1,NA,0,0,NA,1,NA,139,139,139,139,31,0,139
underestimator,underestimator,32,1,3,2,1,0.4250845,59,2,2,4,1,NA,0,0,NA,1,NA,140,140,140,140,32,0,140
underestimator,underestimator,32,1,3,2,1,0.409471,58,2,2,4,1,NA,0,0,NA,1,NA,141,141,141,141,32,0,141
underestimator,underestimator,24,1,2,4,0,0.5001077,63,2,2,5,1,NA,0,1,NA,1,NA,142,142,142,142,24,0,142
underestimator,underestimator,24,1,2,4,0,0.528896,51,2,2,5,1,NA,0,1,NA,1,NA,143,143,143,143,24,0,143
underestimator,underestimator,34,1,3,4,1,0.6163878,42,2,4,6,NA,0,0,0,-1,NA,0,144,144,144,144,34,0,144
underestimator,underestimator,14,1,1,4,0,0.5002369,54,2,1,3,1,NA,0,1,NA,1,NA,145,145,145,145,14,0,145
underestimator,underestimator,41,1,4,1,1,0.5253793,71,2,1,3,1,NA,0,0,NA,1,NA,146,146,146,146,41,0,146
underestimator,underestimator,24,1,2,4,0,0.5273675,49,2,2,5,1,NA,0,1,NA,1,NA,147,147,147,147,24,0,147
underestimator,underestimator,23,1,2,3,0,0.6342033,58,2,2,4,1,NA,0,1,NA,1,NA,148,148,148,148,23,0,148
underestimator,underestimator,41,1,4,1,1,0.4515212,46,2,1,3,1,NA,0,0,NA,1,NA,149,149,149,149,41,0,149
underestimator,underestimator,41,1,4,1,1,0.4428967,62,2,1,3,1,NA,0,0,NA,1,NA,150,150,150,150,41,0,150
underestimator,underestimator,43,1,4,3,0,0.7917426,42,2,4,6,NA,0,0,1,-1,NA,0,151,151,151,151,43,0,151
underestimator,underestimator,14,1,1,4,0,0.958891,38,2,1,3,1,NA,0,1,NA,1,NA,152,152,152,152,14,0,152
underestimator,underestimator,14,1,1,4,0,0.4737339,59,2,1,3,1,NA,0,1,NA,1,NA,153,153,153,153,14,0,153
underestimator,underestimator,12,1,1,2,1,0.5693158,53,2,2,1,NA,0,0,0,1,NA,0,154,154,154,154,12,0,154
underestimator,underestimator,43,1,4,3,0,0.8116102,44,2,4,6,NA,0,0,1,-1,NA,0,155,155,155,155,43,0,155
underestimator,underestimator,43,1,4,3,0,0.9265348,34,2,4,6,NA,0,0,1,-1,NA,0,156,156,156,156,43,0,156
underestimator,underestimator,13,1,1,3,0,0.7662989,41,2,1,2,1,NA,0,1,NA,1,NA,157,157,157,157,13,0,157
underestimator,underestimator,42,1,4,2,1,0.4936702,60,2,2,5,1,NA,0,0,NA,1,NA,158,158,158,158,42,0,158
underestimator,underestimator,12,1,1,2,0,0.5229595,43,2,1,1,NA,1,0,1,1,NA,1,159,159,159,159,12,0,159
underestimator,underestimator,34,1,3,4,1,0.6827343,48,2,4,6,NA,0,0,0,-1,NA,0,160,160,160,160,34,0,160
underestimator,underestimator,42,1,4,2,1,0.7000164,59,2,2,5,1,NA,0,0,NA,1,NA,161,161,161,161,42,0,161
underestimator,underestimator,31,1,3,1,1,0.6519861,64,2,1,2,1,NA,0,0,NA,1,NA,162,162,162,162,31,0,162
underestimator,underestimator,21,1,2,1,0,0.4981157,57,2,2,1,NA,0,0,1,1,NA,0,163,163,163,163,21,0,163
underestimator,underestimator,12,1,1,2,0,0.7296476,31,2,1,1,NA,1,0,1,1,NA,1,164,164,164,164,12,0,164
underestimator,underestimator,34,1,3,4,1,0.6202101,37,2,4,6,NA,0,0,0,-1,NA,0,165,165,165,165,34,0,165
underestimator,underestimator,14,1,1,4,0,0.4620028,34,2,1,3,1,NA,0,1,NA,1,NA,166,166,166,166,14,0,166
underestimator,underestimator,24,1,2,4,0,0.3754967,65,2,2,5,1,NA,0,1,NA,1,NA,167,167,167,167,24,0,167
underestimator,underestimator,14,1,1,4,0,0.4596305,39,2,1,3,1,NA,0,1,NA,1,NA,168,168,168,168,14,0,168
underestimator,underestimator,24,1,2,4,0,0.4368672,64,2,2,5,1,NA,0,1,NA,1,NA,169,169,169,169,24,0,169
underestimator,underestimator,21,1,2,1,1,0.4722261,91,2,1,1,NA,1,0,0,1,NA,1,170,170,170,170,21,0,170
underestimator,underestimator,42,1,4,2,1,0.4277942,61,2,2,5,1,NA,0,0,NA,1,NA,171,171,171,171,42,0,171
underestimator,underestimator,43,1,4,3,0,0.7033305,43,2,4,6,NA,0,0,1,-1,NA,0,172,172,172,172,43,0,172
underestimator,underestimator,42,1,4,2,1,0.6007558,68,2,2,5,1,NA,0,0,NA,1,NA,173,173,173,173,42,0,173
underestimator,underestimator,41,1,4,1,1,0.6173571,66,2,1,3,1,NA,0,0,NA,1,NA,174,174,174,174,41,0,174
underestimator,underestimator,12,1,1,2,0,0.6070946,87,2,1,1,NA,1,0,1,1,NA,1,175,175,175,175,12,0,175
underestimator,underestimator,43,1,4,3,0,0.6918621,43,2,4,6,NA,0,0,1,-1,NA,0,176,176,176,176,43,0,176
underestimator,underestimator,31,1,3,1,1,0.8758128,43,2,1,2,1,NA,0,0,NA,1,NA,177,177,177,177,31,0,177
underestimator,underestimator,23,1,2,3,0,0.5836074,50,2,2,4,1,NA,0,1,NA,1,NA,178,178,178,178,23,0,178
underestimator,underestimator,13,1,1,3,0,0.4870284,50,2,1,2,1,NA,0,1,NA,1,NA,179,179,179,179,13,0,179
underestimator,underestimator,24,1,2,4,0,0.4286178,62,2,2,5,1,NA,0,1,NA,1,NA,180,180,180,180,24,0,180
underestimator,underestimator,32,2,3,2,0,0.46572,55,2,3,4,0,NA,0,1,NA,0,NA,1,1,181,1,32,1,1
underestimator,underestimator,23,2,2,3,1,0.5494525,39,2,3,4,0,NA,0,0,NA,0,NA,2,2,182,2,23,0,2
underestimator,underestimator,34,2,3,4,0,0.8536642,11,2,3,6,NA,1,0,1,-1,NA,1,3,3,183,3,34,0,3
underestimator,underestimator,41,2,4,1,0,0.4652562,42,2,4,3,0,NA,0,1,NA,0,NA,4,4,184,4,41,0,4
underestimator,underestimator,21,2,2,1,1,0.4160253,73,2,1,1,NA,1,0,0,1,NA,1,5,5,185,5,21,0,5
underestimator,underestimator,24,2,2,4,1,1.0168387,41,2,4,5,0,NA,0,0,NA,0,NA,6,6,186,6,24,0,6
underestimator,underestimator,34,2,3,4,0,0.4829944,34,2,3,6,NA,1,0,1,-1,NA,1,7,7,187,7,34,0,7
underestimator,underestimator,12,2,1,2,0,1.2717355,56,2,1,1,NA,1,0,1,1,NA,1,8,8,188,8,12,0,8
underestimator,underestimator,21,2,2,1,1,0.743338,89,2,1,1,NA,1,0,0,1,NA,1,9,9,189,9,21,0,9
underestimator,underestimator,31,2,3,1,1,0.8035528,29,2,1,2,1,NA,0,0,NA,1,NA,10,10,190,10,31,0,10
underestimator,underestimator,42,2,4,2,0,0.8537085,38,2,4,5,0,NA,0,1,NA,0,NA,11,11,191,11,42,0,11
underestimator,underestimator,13,2,1,3,0,0.4572238,67,2,1,2,1,NA,0,1,NA,1,NA,12,12,192,12,13,0,12
underestimator,underestimator,43,2,4,3,0,0.5982548,51,2,4,6,NA,0,0,1,-1,NA,0,13,13,193,13,43,0,13
underestimator,underestimator,31,2,3,1,1,1.1098449,46,2,1,2,1,NA,0,0,NA,1,NA,14,14,194,14,31,0,14
underestimator,underestimator,32,2,3,2,0,0.6258808,62,2,3,4,0,NA,0,1,NA,0,NA,15,15,195,15,32,0,15
underestimator,underestimator,42,2,4,2,1,0.8112124,61,2,2,5,1,NA,0,0,NA,1,NA,16,16,196,16,42,0,16
underestimator,underestimator,13,2,1,3,0,0.5744258,72,2,1,2,1,NA,0,1,NA,1,NA,17,17,197,17,13,0,17
underestimator,underestimator,13,2,1,3,0,0.4514457,60,2,1,2,1,NA,0,1,NA,1,NA,18,18,198,18,13,0,18
underestimator,underestimator,23,2,2,3,1,0.6671797,48,2,3,4,0,NA,0,0,NA,0,NA,19,19,199,19,23,0,19
underestimator,underestimator,14,2,1,4,0,0.5160028,77,2,1,3,1,NA,0,1,NA,1,NA,20,20,200,20,14,0,20
underestimator,underestimator,13,2,1,3,0,0.5244885,84,2,1,2,1,NA,0,1,NA,1,NA,21,21,201,21,13,0,21
underestimator,underestimator,34,2,3,4,0,1.0618442,13,2,3,6,NA,1,0,1,-1,NA,1,22,22,202,22,34,0,22
underestimator,underestimator,42,2,4,2,0,0.7402515,38,2,4,5,0,NA,0,1,NA,0,NA,23,23,203,23,42,0,23
underestimator,underestimator,42,2,4,2,1,0.7118009,56,2,2,5,1,NA,0,0,NA,1,NA,24,24,204,24,42,0,24
underestimator,underestimator,32,2,3,2,0,0.7011717,51,2,3,4,0,NA,0,1,NA,0,NA,25,25,205,25,32,0,25
underestimator,underestimator,42,2,4,2,1,0.6799103,59,2,2,5,1,NA,0,0,NA,1,NA,26,26,206,26,42,0,26
underestimator,underestimator,24,2,2,4,0,0.6150832,68,2,2,5,1,NA,0,1,NA,1,NA,27,27,207,27,24,0,27
underestimator,underestimator,12,2,1,2,1,0.4903387,71,2,2,1,NA,0,0,0,1,NA,0,28,28,208,28,12,0,28
underestimator,underestimator,24,2,2,4,0,0.5168149,55,2,2,5,1,NA,0,1,NA,1,NA,29,29,209,29,24,0,29
underestimator,underestimator,24,2,2,4,0,0.5728967,52,2,2,5,1,NA,0,1,NA,1,NA,30,30,210,30,24,0,30
underestimator,underestimator,23,2,2,3,0,0.4709359,67,2,2,4,1,NA,0,1,NA,1,NA,31,31,211,31,23,0,31
underestimator,underestimator,23,2,2,3,0,0.4401944,63,2,2,4,1,NA,0,1,NA,1,NA,32,32,212,32,23,0,32
underestimator,underestimator,32,2,3,2,1,0.6117394,51,2,2,4,1,NA,0,0,NA,1,NA,33,33,213,33,32,0,33
underestimator,underestimator,21,2,2,1,0,0.4407002,70,2,2,1,NA,0,0,1,1,NA,0,34,34,214,34,21,0,34
underestimator,underestimator,14,2,1,4,0,0.7832414,33,2,1,3,1,NA,0,1,NA,1,NA,35,35,215,35,14,0,35
underestimator,underestimator,12,2,1,2,1,0.78034,64,2,2,1,NA,0,0,0,1,NA,0,36,36,216,36,12,0,36
underestimator,underestimator,31,2,3,1,1,1.3179519,55,2,1,2,1,NA,0,0,NA,1,NA,37,37,217,37,31,0,37
underestimator,underestimator,43,2,4,3,0,0.4272216,36,2,4,6,NA,0,0,1,-1,NA,0,38,38,218,38,43,0,38
underestimator,underestimator,14,2,1,4,0,0.7176592,47,2,1,3,1,NA,0,1,NA,1,NA,39,39,219,39,14,0,39
underestimator,underestimator,43,2,4,3,1,0.9246112,45,2,3,6,NA,1,0,0,-1,NA,1,40,40,220,40,43,0,40
underestimator,underestimator,13,2,1,3,0,1.0592094,78,2,1,2,1,NA,0,1,NA,1,NA,41,41,221,41,13,0,41
underestimator,underestimator,12,2,1,2,1,0.6121151,58,2,2,1,NA,0,0,0,1,NA,0,42,42,222,42,12,0,42
underestimator,underestimator,41,2,4,1,0,1.0080713,40,2,4,3,0,NA,0,1,NA,0,NA,43,43,223,43,41,0,43
underestimator,underestimator,24,2,2,4,0,0.4940699,55,2,2,5,1,NA,0,1,NA,1,NA,44,44,224,44,24,0,44
underestimator,underestimator,41,2,4,1,1,0.5759017,62,2,1,3,1,NA,0,0,NA,1,NA,45,45,225,45,41,0,45
underestimator,underestimator,12,2,1,2,1,0.6918094,60,2,2,1,NA,0,0,0,1,NA,0,46,46,226,46,12,0,46
underestimator,underestimator,42,2,4,2,1,0.402501,57,2,2,5,1,NA,0,0,NA,1,NA,47,47,227,47,42,0,47
underestimator,underestimator,24,2,2,4,0,0.3696858,61,2,2,5,1,NA,0,1,NA,1,NA,48,48,228,48,24,0,48
underestimator,underestimator,14,2,1,4,0,0.563007,88,2,1,3,1,NA,0,1,NA,1,NA,49,49,229,49,14,0,49
underestimator,underestimator,43,2,4,3,0,0.5734467,43,2,4,6,NA,0,0,1,-1,NA,0,50,50,230,50,43,0,50
underestimator,underestimator,12,2,1,2,1,0.5365973,60,2,2,1,NA,0,0,0,1,NA,0,51,51,231,51,12,0,51
underestimator,underestimator,34,2,3,4,0,0.6321076,26,2,3,6,NA,1,0,1,-1,NA,1,52,52,232,52,34,0,52
underestimator,underestimator,12,2,1,2,1,0.4988708,64,2,2,1,NA,0,0,0,1,NA,0,53,53,233,53,12,0,53
underestimator,underestimator,12,2,1,2,1,0.4755583,63,2,2,1,NA,0,0,0,1,NA,0,54,54,234,54,12,0,54
underestimator,underestimator,24,2,2,4,0,0.6888657,55,2,2,5,1,NA,0,1,NA,1,NA,55,55,235,55,24,0,55
underestimator,underestimator,34,2,3,4,1,0.7243413,49,2,4,6,NA,0,0,0,-1,NA,0,56,56,236,56,34,0,56
underestimator,underestimator,42,2,4,2,1,0.8820833,67,2,2,5,1,NA,0,0,NA,1,NA,57,57,237,57,42,0,57
underestimator,underestimator,42,2,4,2,1,0.5099171,62,2,2,5,1,NA,0,0,NA,1,NA,58,58,238,58,42,0,58
underestimator,underestimator,34,2,3,4,1,0.7830483,41,2,4,6,NA,0,0,0,-1,NA,0,59,59,239,59,34,0,59
underestimator,underestimator,23,2,2,3,0,0.417575,48,2,2,4,1,NA,0,1,NA,1,NA,60,60,240,60,23,0,60
underestimator,underestimator,41,2,4,1,0,1.0317692,31,2,4,3,0,NA,0,1,NA,0,NA,61,61,241,61,41,0,61
underestimator,underestimator,42,2,4,2,1,0.6659355,54,2,2,5,1,NA,0,0,NA,1,NA,62,62,242,62,42,0,62
underestimator,underestimator,21,2,2,1,0,0.7042505,56,2,2,1,NA,0,0,1,1,NA,0,63,63,243,63,21,0,63
underestimator,underestimator,32,2,3,2,1,0.5207367,50,2,2,4,1,NA,0,0,NA,1,NA,64,64,244,64,32,0,64
underestimator,underestimator,23,2,2,3,0,0.528999,70,2,2,4,1,NA,0,1,NA,1,NA,65,65,245,65,23,0,65
underestimator,underestimator,14,2,1,4,0,1.0752395,70,2,1,3,1,NA,0,1,NA,1,NA,66,66,246,66,14,0,66
underestimator,underestimator,34,2,3,4,1,0.5670509,46,2,4,6,NA,0,0,0,-1,NA,0,67,67,247,67,34,0,67
underestimator,underestimator,31,2,3,1,1,0.4707063,43,2,1,2,1,NA,0,0,NA,1,NA,68,68,248,68,31,0,68
underestimator,underestimator,43,2,4,3,0,0.472606,36,2,4,6,NA,0,0,1,-1,NA,0,69,69,249,69,43,0,69
underestimator,underestimator,31,2,3,1,1,0.4123139,75,2,1,2,1,NA,0,0,NA,1,NA,70,70,250,70,31,0,70
underestimator,underestimator,43,2,4,3,0,0.475604,36,2,4,6,NA,0,0,1,-1,NA,0,71,71,251,71,43,0,71
underestimator,underestimator,13,2,1,3,0,0.6742257,53,2,1,2,1,NA,0,1,NA,1,NA,72,72,252,72,13,0,72
underestimator,underestimator,21,2,2,1,0,0.5000607,66,2,2,1,NA,0,0,1,1,NA,0,73,73,253,73,21,0,73
underestimator,underestimator,13,2,1,3,0,0.586905,52,2,1,2,1,NA,0,1,NA,1,NA,74,74,254,74,13,0,74
underestimator,underestimator,41,2,4,1,1,0.6288664,55,2,1,3,1,NA,0,0,NA,1,NA,75,75,255,75,41,0,75
underestimator,underestimator,21,2,2,1,0,0.4544072,60,2,2,1,NA,0,0,1,1,NA,0,76,76,256,76,21,0,76
underestimator,underestimator,14,2,1,4,0,0.920224,81,2,1,3,1,NA,0,1,NA,1,NA,77,77,257,77,14,0,77
underestimator,underestimator,21,2,2,1,0,0.5419006,62,2,2,1,NA,0,0,1,1,NA,0,78,78,258,78,21,0,78
underestimator,underestimator,34,2,3,4,0,0.4421789,21,2,3,6,NA,1,0,1,-1,NA,1,79,79,259,79,34,0,79
underestimator,underestimator,41,2,4,1,1,0.6976614,32,2,1,3,1,NA,0,0,NA,1,NA,80,80,260,80,41,0,80
underestimator,underestimator,23,2,2,3,0,0.5954775,54,2,2,4,1,NA,0,1,NA,1,NA,81,81,261,81,23,0,81
underestimator,underestimator,14,2,1,4,0,0.4992849,57,2,1,3,1,NA,0,1,NA,1,NA,82,82,262,82,14,0,82
underestimator,underestimator,32,2,3,2,1,0.5765332,53,2,2,4,1,NA,0,0,NA,1,NA,83,83,263,83,32,0,83
underestimator,underestimator,31,2,3,1,1,0.5597974,74,2,1,2,1,NA,0,0,NA,1,NA,84,84,264,84,31,0,84
underestimator,underestimator,43,2,4,3,0,0.5759812,33,2,4,6,NA,0,0,1,-1,NA,0,85,85,265,85,43,0,85
underestimator,underestimator,23,2,2,3,0,0.4957119,61,2,2,4,1,NA,0,1,NA,1,NA,86,86,266,86,23,0,86
underestimator,underestimator,13,2,1,3,0,0.5177043,80,2,1,2,1,NA,0,1,NA,1,NA,87,87,267,87,13,0,87
underestimator,underestimator,43,2,4,3,0,0.63688,38,2,4,6,NA,0,0,1,-1,NA,0,88,88,268,88,43,0,88
underestimator,underestimator,24,2,2,4,0,0.4097409,57,2,2,5,1,NA,0,1,NA,1,NA,89,89,269,89,24,0,89
underestimator,underestimator,31,2,3,1,1,0.7493011,31,2,1,2,1,NA,0,0,NA,1,NA,90,90,270,90,31,0,90
underestimator,underestimator,12,2,1,2,1,0.38409,67,2,2,1,NA,0,0,0,1,NA,0,91,91,271,91,12,0,91
underestimator,underestimator,14,2,1,4,0,0.7576012,62,2,1,3,1,NA,0,1,NA,1,NA,92,92,272,92,14,0,92
underestimator,underestimator,41,2,4,1,0,0.6627052,43,2,4,3,0,NA,0,1,NA,0,NA,93,93,273,93,41,0,93
underestimator,underestimator,24,2,2,4,0,0.4090938,57,2,2,5,1,NA,0,1,NA,1,NA,94,94,274,94,24,0,94
underestimator,underestimator,42,2,4,2,1,0.4588277,52,2,2,5,1,NA,0,0,NA,1,NA,95,95,275,95,42,0,95
underestimator,underestimator,12,2,1,2,0,0.4447619,51,2,1,1,NA,1,0,1,1,NA,1,96,96,276,96,12,0,96
underestimator,underestimator,21,2,2,1,0,0.5510641,58,2,2,1,NA,0,0,1,1,NA,0,97,97,277,97,21,0,97
underestimator,underestimator,32,2,3,2,1,0.5023071,62,2,2,4,1,NA,0,0,NA,1,NA,98,98,278,98,32,0,98
underestimator,underestimator,42,2,4,2,1,0.7495339,60,2,2,5,1,NA,0,0,NA,1,NA,99,99,279,99,42,0,99
underestimator,underestimator,13,2,1,3,0,0.5502777,45,2,1,2,1,NA,0,1,NA,1,NA,100,100,280,100,13,0,100
underestimator,underestimator,21,2,2,1,0,0.4666138,72,2,2,1,NA,0,0,1,1,NA,0,101,101,281,101,21,0,101
underestimator,underestimator,21,2,2,1,0,0.5765797,58,2,2,1,NA,0,0,1,1,NA,0,102,102,282,102,21,0,102
underestimator,underestimator,14,2,1,4,0,0.8254614,43,2,1,3,1,NA,0,1,NA,1,NA,103,103,283,103,14,0,103
underestimator,underestimator,13,2,1,3,0,0.4594521,37,2,1,2,1,NA,0,1,NA,1,NA,104,104,284,104,13,0,104
underestimator,underestimator,32,2,3,2,1,0.5002976,58,2,2,4,1,NA,0,0,NA,1,NA,105,105,285,105,32,0,105
underestimator,underestimator,34,2,3,4,1,0.6907405,43,2,4,6,NA,0,0,0,-1,NA,0,106,106,286,106,34,0,106
underestimator,underestimator,34,2,3,4,1,0.4922673,37,2,4,6,NA,0,0,0,-1,NA,0,107,107,287,107,34,0,107
underestimator,underestimator,41,2,4,1,1,0.6662003,63,2,1,3,1,NA,0,0,NA,1,NA,108,108,288,108,41,0,108
underestimator,underestimator,34,2,3,4,1,0.522931,34,2,4,6,NA,0,0,0,-1,NA,0,109,109,289,109,34,0,109
underestimator,underestimator,43,2,4,3,0,0.4584909,45,2,4,6,NA,0,0,1,-1,NA,0,110,110,290,110,43,0,110
underestimator,underestimator,24,2,2,4,0,0.6508666,61,2,2,5,1,NA,0,1,NA,1,NA,111,111,291,111,24,0,111
underestimator,underestimator,23,2,2,3,1,0.4785933,52,2,3,4,0,NA,0,0,NA,0,NA,112,112,292,112,23,0,112
underestimator,underestimator,23,2,2,3,0,0.4576619,50,2,2,4,1,NA,0,1,NA,1,NA,113,113,293,113,23,0,113
underestimator,underestimator,43,2,4,3,0,0.8751744,37,2,4,6,NA,0,0,1,-1,NA,0,114,114,294,114,43,0,114
underestimator,underestimator,24,2,2,4,0,0.4622563,66,2,2,5,1,NA,0,1,NA,1,NA,115,115,295,115,24,0,115
underestimator,underestimator,32,2,3,2,1,0.5170506,61,2,2,4,1,NA,0,0,NA,1,NA,116,116,296,116,32,0,116
underestimator,underestimator,41,2,4,1,1,0.9207581,82,2,1,3,1,NA,0,0,NA,1,NA,117,117,297,117,41,0,117
underestimator,underestimator,41,2,4,1,1,0.4575867,34,2,1,3,1,NA,0,0,NA,1,NA,118,118,298,118,41,0,118
underestimator,underestimator,41,2,4,1,1,0.7641927,52,2,1,3,1,NA,0,0,NA,1,NA,119,119,299,119,41,0,119
underestimator,underestimator,43,2,4,3,0,0.6526148,40,2,4,6,NA,0,0,1,-1,NA,0,120,120,300,120,43,0,120
underestimator,underestimator,43,2,4,3,0,0.5942084,47,2,4,6,NA,0,0,1,-1,NA,0,121,121,301,121,43,0,121
underestimator,underestimator,23,2,2,3,0,0.6023623,69,2,2,4,1,NA,0,1,NA,1,NA,122,122,302,122,23,0,122
underestimator,underestimator,32,2,3,2,1,0.5243436,63,2,2,4,1,NA,0,0,NA,1,NA,123,123,303,123,32,0,123
underestimator,underestimator,13,2,1,3,0,0.5083906,93,2,1,2,1,NA,0,1,NA,1,NA,124,124,304,124,13,0,124
underestimator,underestimator,21,2,2,1,1,0.4407369,41,2,1,1,NA,1,0,0,1,NA,1,125,125,305,125,21,0,125
underestimator,underestimator,43,2,4,3,0,0.67086,33,2,4,6,NA,0,0,1,-1,NA,0,126,126,306,126,43,0,126
underestimator,underestimator,31,2,3,1,1,0.4602579,36,2,1,2,1,NA,0,0,NA,1,NA,127,127,307,127,31,0,127
underestimator,underestimator,14,2,1,4,0,0.3903725,69,2,1,3,1,NA,0,1,NA,1,NA,128,128,308,128,14,0,128
underestimator,underestimator,23,2,2,3,0,0.476431,68,2,2,4,1,NA,0,1,NA,1,NA,129,129,309,129,23,0,129
underestimator,underestimator,12,2,1,2,1,0.5924747,64,2,2,1,NA,0,0,0,1,NA,0,130,130,310,130,12,0,130
underestimator,underestimator,31,2,3,1,1,0.548027,42,2,1,2,1,NA,0,0,NA,1,NA,131,131,311,131,31,0,131
underestimator,underestimator,42,2,4,2,1,0.4789344,69,2,2,5,1,NA,0,0,NA,1,NA,132,132,312,132,42,0,132
underestimator,underestimator,14,2,1,4,0,0.5054365,48,2,1,3,1,NA,0,1,NA,1,NA,133,133,313,133,14,0,133
underestimator,underestimator,14,2,1,4,0,0.503752,48,2,1,3,1,NA,0,1,NA,1,NA,134,134,314,134,14,0,134
underestimator,underestimator,42,2,4,2,1,0.5326177,49,2,2,5,1,NA,0,0,NA,1,NA,135,135,315,135,42,0,135
underestimator,underestimator,34,2,3,4,1,0.6002737,44,2,4,6,NA,0,0,0,-1,NA,0,136,136,316,136,34,0,136
underestimator,underestimator,12,2,1,2,0,0.5750313,56,2,1,1,NA,1,0,1,1,NA,1,137,137,317,137,12,0,137
underestimator,underestimator,14,2,1,4,0,0.5934351,83,2,1,3,1,NA,0,1,NA,1,NA,138,138,318,138,14,0,138
underestimator,underestimator,12,2,1,2,0,0.3953861,63,2,1,1,NA,1,0,1,1,NA,1,139,139,319,139,12,0,139
underestimator,underestimator,24,2,2,4,0,0.5037908,54,2,2,5,1,NA,0,1,NA,1,NA,140,140,320,140,24,0,140
underestimator,underestimator,32,2,3,2,1,0.442498,66,2,2,4,1,NA,0,0,NA,1,NA,141,141,321,141,32,0,141
underestimator,underestimator,24,2,2,4,0,0.4746346,63,2,2,5,1,NA,0,1,NA,1,NA,142,142,322,142,24,0,142
underestimator,underestimator,34,2,3,4,1,0.4583901,31,2,4,6,NA,0,0,0,-1,NA,0,143,143,323,143,34,0,143
underestimator,underestimator,41,2,4,1,1,0.6027742,64,2,1,3,1,NA,0,0,NA,1,NA,144,144,324,144,41,0,144
underestimator,underestimator,31,2,3,1,1,0.4436559,57,2,1,2,1,NA,0,0,NA,1,NA,145,145,325,145,31,0,145
underestimator,underestimator,12,2,1,2,1,0.6118854,60,2,2,1,NA,0,0,0,1,NA,0,146,146,326,146,12,0,146
underestimator,underestimator,41,2,4,1,1,0.4257476,76,2,1,3,1,NA,0,0,NA,1,NA,147,147,327,147,41,0,147
underestimator,underestimator,14,2,1,4,0,0.4152833,60,2,1,3,1,NA,0,1,NA,1,NA,148,148,328,148,14,0,148
underestimator,underestimator,42,2,4,2,1,0.5998411,52,2,2,5,1,NA,0,0,NA,1,NA,149,149,329,149,42,0,149
underestimator,underestimator,13,2,1,3,0,0.4001189,59,2,1,2,1,NA,0,1,NA,1,NA,150,150,330,150,13,0,150
underestimator,underestimator,41,2,4,1,1,0.4948176,51,2,1,3,1,NA,0,0,NA,1,NA,151,151,331,151,41,0,151
underestimator,underestimator,21,2,2,1,1,0.3827523,38,2,1,1,NA,1,0,0,1,NA,1,152,152,332,152,21,0,152
underestimator,underestimator,14,2,1,4,0,0.459225,49,2,1,3,1,NA,0,1,NA,1,NA,153,153,333,153,14,0,153
underestimator,underestimator,31,2,3,1,1,0.442366,50,2,1,2,1,NA,0,0,NA,1,NA,154,154,334,154,31,0,154
underestimator,underestimator,24,2,2,4,0,0.3860997,69,2,2,5,1,NA,0,1,NA,1,NA,155,155,335,155,24,0,155
underestimator,underestimator,43,2,4,3,0,0.8749676,44,2,4,6,NA,0,0,1,-1,NA,0,156,156,336,156,43,0,156
underestimator,underestimator,13,2,1,3,0,0.719553,58,2,1,2,1,NA,0,1,NA,1,NA,157,157,337,157,13,0,157
underestimator,underestimator,41,2,4,1,1,0.7759992,91,2,1,3,1,NA,0,0,NA,1,NA,158,158,338,158,41,0,158
underestimator,underestimator,21,2,2,1,0,0.5320186,51,2,2,1,NA,0,0,1,1,NA,0,159,159,339,159,21,0,159
underestimator,underestimator,32,2,3,2,1,0.7504145,65,2,2,4,1,NA,0,0,NA,1,NA,160,160,340,160,32,0,160
underestimator,underestimator,21,2,2,1,0,0.46778,54,2,2,1,NA,0,0,1,1,NA,0,161,161,341,161,21,0,161
underestimator,underestimator,23,2,2,3,0,0.508432,51,2,2,4,1,NA,0,1,NA,1,NA,162,162,342,162,23,0,162
underestimator,underestimator,32,2,3,2,1,0.4666956,66,2,2,4,1,NA,0,0,NA,1,NA,163,163,343,163,32,0,163
underestimator,underestimator,34,2,3,4,1,0.6912984,45,2,4,6,NA,0,0,0,-1,NA,0,164,164,344,164,34,0,164
underestimator,underestimator,21,2,2,1,0,0.4170106,64,2,2,1,NA,0,0,1,1,NA,0,165,165,345,165,21,0,165
underestimator,underestimator,42,2,4,2,1,0.4534543,58,2,2,5,1,NA,0,0,NA,1,NA,166,166,346,166,42,0,166
underestimator,underestimator,23,2,2,3,0,0.4786414,53,2,2,4,1,NA,0,1,NA,1,NA,167,167,347,167,23,0,167
underestimator,underestimator,43,2,4,3,0,0.991583,38,2,4,6,NA,0,0,1,-1,NA,0,168,168,348,168,43,0,168
underestimator,underestimator,31,2,3,1,0,0.5375476,23,2,3,2,0,NA,0,1,NA,0,NA,169,169,349,169,31,0,169
underestimator,underestimator,23,2,2,3,0,0.5733293,65,2,2,4,1,NA,0,1,NA,1,NA,170,170,350,170,23,0,170
underestimator,underestimator,32,2,3,2,1,0.6415044,62,2,2,4,1,NA,0,0,NA,1,NA,171,171,351,171,32,0,171
underestimator,underestimator,31,2,3,1,1,0.6816332,54,2,1,2,1,NA,0,0,NA,1,NA,172,172,352,172,31,0,172
underestimator,underestimator,13,2,1,3,0,0.4668514,66,2,1,2,1,NA,0,1,NA,1,NA,173,173,353,173,13,0,173
underestimator,underestimator,12,2,1,2,0,0.5952175,58,2,1,1,NA,1,0,1,1,NA,1,174,174,354,174,12,0,174
underestimator,underestimator,31,2,3,1,1,0.40388,73,2,1,2,1,NA,0,0,NA,1,NA,175,175,355,175,31,0,175
underestimator,underestimator,34,2,3,4,1,0.8332592,28,2,4,6,NA,0,0,0,-1,NA,0,176,176,356,176,34,0,176
underestimator,underestimator,24,2,2,4,0,0.6155926,53,2,2,5,1,NA,0,1,NA,1,NA,177,177,357,177,24,0,177
underestimator,underestimator,31,2,3,1,1,0.6920455,44,2,1,2,1,NA,0,0,NA,1,NA,178,178,358,178,31,0,178
underestimator,underestimator,32,2,3,2,0,0.4786165,47,2,3,4,0,NA,0,1,NA,0,NA,179,179,359,179,32,0,179
underestimator,underestimator,13,2,1,3,0,0.5920106,61,2,1,2,1,NA,0,1,NA,1,NA,180,180,360,180,13,0,180
underestimator,underestimator,34,3,3,4,0,0.6359323,58,2,3,6,NA,1,0,1,-1,NA,1,1,1,361,1,34,1,1
underestimator,underestimator,32,3,3,2,0,0.5921296,14,2,3,4,0,NA,0,1,NA,0,NA,2,2,362,2,32,0,2
underestimator,underestimator,21,3,2,1,0,0.7667836,57,2,2,1,NA,0,0,1,1,NA,0,3,3,363,3,21,0,3
underestimator,underestimator,41,3,4,1,0,0.8419335,49,2,4,3,0,NA,0,1,NA,0,NA,4,4,364,4,41,0,4
underestimator,underestimator,23,3,2,3,1,0.6542807,24,2,3,4,0,NA,0,0,NA,0,NA,5,5,365,5,23,0,5
underestimator,underestimator,42,3,4,2,1,1.0042027,58,2,2,5,1,NA,0,0,NA,1,NA,6,6,366,6,42,0,6
underestimator,underestimator,23,3,2,3,0,0.7921401,60,2,2,4,1,NA,0,1,NA,1,NA,7,7,367,7,23,0,7
underestimator,underestimator,21,3,2,1,0,0.4787125,62,2,2,1,NA,0,0,1,1,NA,0,8,8,368,8,21,0,8
underestimator,underestimator,23,3,2,3,0,0.4540697,65,2,2,4,1,NA,0,1,NA,1,NA,9,9,369,9,23,0,9
underestimator,underestimator,42,3,4,2,1,0.5052479,69,2,2,5,1,NA,0,0,NA,1,NA,10,10,370,10,42,0,10
underestimator,underestimator,34,3,3,4,0,0.8953554,53,2,3,6,NA,1,0,1,-1,NA,1,11,11,371,11,34,0,11
underestimator,underestimator,32,3,3,2,1,0.5698283,53,2,2,4,1,NA,0,0,NA,1,NA,12,12,372,12,32,0,12
underestimator,underestimator,21,3,2,1,0,1.2025444,52,2,2,1,NA,0,0,1,1,NA,0,13,13,373,13,21,0,13
underestimator,underestimator,13,3,1,3,1,0.8481412,17,2,3,2,0,NA,0,0,NA,0,NA,14,14,374,14,13,0,14
underestimator,underestimator,21,3,2,1,0,0.75343,66,2,2,1,NA,0,0,1,1,NA,0,15,15,375,15,21,0,15
underestimator,underestimator,43,3,4,3,1,0.8160429,43,2,3,6,NA,1,0,0,-1,NA,1,16,16,376,16,43,0,16
underestimator,underestimator,42,3,4,2,1,0.816493,63,2,2,5,1,NA,0,0,NA,1,NA,17,17,377,17,42,0,17
underestimator,underestimator,13,3,1,3,0,0.6670914,76,2,1,2,1,NA,0,1,NA,1,NA,18,18,378,18,13,0,18
underestimator,underestimator,23,3,2,3,0,1.0918283,68,2,2,4,1,NA,0,1,NA,1,NA,19,19,379,19,23,0,19
underestimator,underestimator,41,3,4,1,0,1.0086152,44,2,4,3,0,NA,0,1,NA,0,NA,20,20,380,20,41,0,20
underestimator,underestimator,32,3,3,2,1,0.7901218,55,2,2,4,1,NA,0,0,NA,1,NA,21,21,381,21,32,0,21
underestimator,underestimator,41,3,4,1,1,0.8992539,45,2,1,3,1,NA,0,0,NA,1,NA,22,22,382,22,41,0,22
underestimator,underestimator,24,3,2,4,0,0.7181202,57,2,2,5,1,NA,0,1,NA,1,NA,23,23,383,23,24,0,23
underestimator,underestimator,43,3,4,3,0,0.8741549,29,2,4,6,NA,0,0,1,-1,NA,0,24,24,384,24,43,0,24
underestimator,underestimator,23,3,2,3,0,0.4170985,59,2,2,4,1,NA,0,1,NA,1,NA,25,25,385,25,23,0,25
underestimator,underestimator,12,3,1,2,1,0.5500491,63,2,2,1,NA,0,0,0,1,NA,0,26,26,386,26,12,0,26
underestimator,underestimator,21,3,2,1,0,0.6416702,61,2,2,1,NA,0,0,1,1,NA,0,27,27,387,27,21,0,27
underestimator,underestimator,42,3,4,2,1,0.7645588,51,2,2,5,1,NA,0,0,NA,1,NA,28,28,388,28,42,0,28
underestimator,underestimator,13,3,1,3,0,0.8073371,80,2,1,2,1,NA,0,1,NA,1,NA,29,29,389,29,13,0,29
underestimator,underestimator,13,3,1,3,0,0.492459,43,2,1,2,1,NA,0,1,NA,1,NA,30,30,390,30,13,0,30
underestimator,underestimator,42,3,4,2,1,0.802633,64,2,2,5,1,NA,0,0,NA,1,NA,31,31,391,31,42,0,31
underestimator,underestimator,24,3,2,4,0,0.4163842,51,2,2,5,1,NA,0,1,NA,1,NA,32,32,392,32,24,0,32
underestimator,underestimator,21,3,2,1,0,0.5738846,48,2,2,1,NA,0,0,1,1,NA,0,33,33,393,33,21,0,33
underestimator,underestimator,32,3,3,2,1,0.9406943,56,2,2,4,1,NA,0,0,NA,1,NA,34,34,394,34,32,0,34
underestimator,underestimator,31,3,3,1,1,0.8911918,66,2,1,2,1,NA,0,0,NA,1,NA,35,35,395,35,31,0,35
underestimator,underestimator,31,3,3,1,1,0.6294161,33,2,1,2,1,NA,0,0,NA,1,NA,36,36,396,36,31,0,36
underestimator,underestimator,42,3,4,2,0,0.523265,50,2,4,5,0,NA,0,1,NA,0,NA,37,37,397,37,42,0,37
underestimator,underestimator,12,3,1,2,1,0.4072249,50,2,2,1,NA,0,0,0,1,NA,0,38,38,398,38,12,0,38
underestimator,underestimator,32,3,3,2,1,0.4525594,70,2,2,4,1,NA,0,0,NA,1,NA,39,39,399,39,32,0,39
underestimator,underestimator,41,3,4,1,1,1.0506238,62,2,1,3,1,NA,0,0,NA,1,NA,40,40,400,40,41,0,40
underestimator,underestimator,42,3,4,2,1,0.5855255,72,2,2,5,1,NA,0,0,NA,1,NA,41,41,401,41,42,0,41
underestimator,underestimator,31,3,3,1,1,0.6499688,29,2,1,2,1,NA,0,0,NA,1,NA,42,42,402,42,31,0,42
underestimator,underestimator,41,3,4,1,1,0.6833656,93,2,1,3,1,NA,0,0,NA,1,NA,43,43,403,43,41,0,43
underestimator,underestimator,43,3,4,3,0,1.3184179,52,2,4,6,NA,0,0,1,-1,NA,0,44,44,404,44,43,0,44
underestimator,underestimator,42,3,4,2,1,0.7228127,67,2,2,5,1,NA,0,0,NA,1,NA,45,45,405,45,42,0,45
underestimator,underestimator,24,3,2,4,0,0.5534186,53,2,2,5,1,NA,0,1,NA,1,NA,46,46,406,46,24,0,46
underestimator,underestimator,24,3,2,4,0,0.4675227,64,2,2,5,1,NA,0,1,NA,1,NA,47,47,407,47,24,0,47
underestimator,underestimator,43,3,4,3,1,0.5536576,34,2,3,6,NA,1,0,0,-1,NA,1,48,48,408,48,43,0,48
underestimator,underestimator,41,3,4,1,1,0.4167211,61,2,1,3,1,NA,0,0,NA,1,NA,49,49,409,49,41,0,49
underestimator,underestimator,12,3,1,2,0,0.5376088,82,2,1,1,NA,1,0,1,1,NA,1,50,50,410,50,12,0,50
underestimator,underestimator,32,3,3,2,1,0.5035973,62,2,2,4,1,NA,0,0,NA,1,NA,51,51,411,51,32,0,51
underestimator,underestimator,13,3,1,3,0,0.7083048,89,2,1,2,1,NA,0,1,NA,1,NA,52,52,412,52,13,0,52
underestimator,underestimator,14,3,1,4,0,0.6770119,63,2,1,3,1,NA,0,1,NA,1,NA,53,53,413,53,14,0,53
underestimator,underestimator,12,3,1,2,1,0.5859252,61,2,2,1,NA,0,0,0,1,NA,0,54,54,414,54,12,0,54
underestimator,underestimator,42,3,4,2,1,0.6425104,59,2,2,5,1,NA,0,0,NA,1,NA,55,55,415,55,42,0,55
underestimator,underestimator,32,3,3,2,1,0.6430287,56,2,2,4,1,NA,0,0,NA,1,NA,56,56,416,56,32,0,56
underestimator,underestimator,31,3,3,1,1,0.9386041,59,2,1,2,1,NA,0,0,NA,1,NA,57,57,417,57,31,0,57
underestimator,underestimator,12,3,1,2,1,0.5426525,55,2,2,1,NA,0,0,0,1,NA,0,58,58,418,58,12,0,58
underestimator,underestimator,43,3,4,3,0,1.1670221,41,2,4,6,NA,0,0,1,-1,NA,0,59,59,419,59,43,0,59
underestimator,underestimator,24,3,2,4,0,0.7246067,52,2,2,5,1,NA,0,1,NA,1,NA,60,60,420,60,24,0,60
underestimator,underestimator,32,3,3,2,1,0.5422268,51,2,2,4,1,NA,0,0,NA,1,NA,61,61,421,61,32,0,61
underestimator,underestimator,14,3,1,4,0,1.1421651,52,2,1,3,1,NA,0,1,NA,1,NA,62,62,422,62,14,0,62
underestimator,underestimator,24,3,2,4,0,0.6124145,59,2,2,5,1,NA,0,1,NA,1,NA,63,63,423,63,24,0,63
underestimator,underestimator,31,3,3,1,1,0.7042493,65,2,1,2,1,NA,0,0,NA,1,NA,64,64,424,64,31,0,64
underestimator,underestimator,41,3,4,1,1,0.6867574,73,2,1,3,1,NA,0,0,NA,1,NA,65,65,425,65,41,0,65
underestimator,underestimator,24,3,2,4,0,0.7869162,63,2,2,5,1,NA,0,1,NA,1,NA,66,66,426,66,24,0,66
underestimator,underestimator,43,3,4,3,0,1.4508306,39,2,4,6,NA,0,0,1,-1,NA,0,67,67,427,67,43,0,67
underestimator,underestimator,21,3,2,1,0,0.7456551,62,2,2,1,NA,0,0,1,1,NA,0,68,68,428,68,21,0,68
underestimator,underestimator,24,3,2,4,0,0.5068415,50,2,2,5,1,NA,0,1,NA,1,NA,69,69,429,69,24,0,69
underestimator,underestimator,34,3,3,4,1,0.9259399,46,2,4,6,NA,0,0,0,-1,NA,0,70,70,430,70,34,0,70
underestimator,underestimator,32,3,3,2,1,0.6035463,67,2,2,4,1,NA,0,0,NA,1,NA,71,71,431,71,32,0,71
underestimator,underestimator,23,3,2,3,0,0.5918445,69,2,2,4,1,NA,0,1,NA,1,NA,72,72,432,72,23,0,72
underestimator,underestimator,42,3,4,2,1,0.4793486,65,2,2,5,1,NA,0,0,NA,1,NA,73,73,433,73,42,0,73
underestimator,underestimator,23,3,2,3,0,0.7834895,56,2,2,4,1,NA,0,1,NA,1,NA,74,74,434,74,23,0,74
underestimator,underestimator,31,3,3,1,1,0.8410898,70,2,1,2,1,NA,0,0,NA,1,NA,75,75,435,75,31,0,75
underestimator,underestimator,43,3,4,3,1,0.9693452,35,2,3,6,NA,1,0,0,-1,NA,1,76,76,436,76,43,0,76
underestimator,underestimator,21,3,2,1,0,0.77742,59,2,2,1,NA,0,0,1,1,NA,0,77,77,437,77,21,0,77
underestimator,underestimator,12,3,1,2,1,0.6153722,58,2,2,1,NA,0,0,0,1,NA,0,78,78,438,78,12,0,78
underestimator,underestimator,12,3,1,2,1,0.4795603,57,2,2,1,NA,0,0,0,1,NA,0,79,79,439,79,12,0,79
underestimator,underestimator,13,3,1,3,0,0.8405862,42,2,1,2,1,NA,0,1,NA,1,NA,80,80,440,80,13,0,80
underestimator,underestimator,34,3,3,4,1,0.8290897,35,2,4,6,NA,0,0,0,-1,NA,0,81,81,441,81,34,0,81
underestimator,underestimator,12,3,1,2,1,0.6163474,60,2,2,1,NA,0,0,0,1,NA,0,82,82,442,82,12,0,82
underestimator,underestimator,43,3,4,3,0,0.8805393,41,2,4,6,NA,0,0,1,-1,NA,0,83,83,443,83,43,0,83
underestimator,underestimator,12,3,1,2,1,0.6203834,56,2,2,1,NA,0,0,0,1,NA,0,84,84,444,84,12,0,84
underestimator,underestimator,32,3,3,2,1,0.6168943,60,2,2,4,1,NA,0,0,NA,1,NA,85,85,445,85,32,0,85
underestimator,underestimator,12,3,1,2,1,0.4668772,58,2,2,1,NA,0,0,0,1,NA,0,86,86,446,86,12,0,86
underestimator,underestimator,13,3,1,3,0,0.9679984,64,2,1,2,1,NA,0,1,NA,1,NA,87,87,447,87,13,0,87
underestimator,underestimator,14,3,1,4,0,1.0416255,78,2,1,3,1,NA,0,1,NA,1,NA,88,88,448,88,14,0,88
underestimator,underestimator,34,3,3,4,1,0.7116554,33,2,4,6,NA,0,0,0,-1,NA,0,89,89,449,89,34,0,89
underestimator,underestimator,13,3,1,3,0,0.4922979,87,2,1,2,1,NA,0,1,NA,1,NA,90,90,450,90,13,0,90
underestimator,underestimator,43,3,4,3,1,0.8280514,41,2,3,6,NA,1,0,0,-1,NA,1,91,91,451,91,43,0,91
underestimator,underestimator,13,3,1,3,0,0.5037332,50,2,1,2,1,NA,0,1,NA,1,NA,92,92,452,92,13,0,92
underestimator,underestimator,24,3,2,4,0,0.5280346,69,2,2,5,1,NA,0,1,NA,1,NA,93,93,453,93,24,0,93
underestimator,underestimator,43,3,4,3,0,0.89921,41,2,4,6,NA,0,0,1,-1,NA,0,94,94,454,94,43,0,94
underestimator,underestimator,12,3,1,2,1,0.4285973,66,2,2,1,NA,0,0,0,1,NA,0,95,95,455,95,12,0,95
underestimator,underestimator,21,3,2,1,0,0.4872304,55,2,2,1,NA,0,0,1,1,NA,0,96,96,456,96,21,0,96
underestimator,underestimator,34,3,3,4,1,0.6084608,36,2,4,6,NA,0,0,0,-1,NA,0,97,97,457,97,34,0,97
underestimator,underestimator,13,3,1,3,0,1.0507847,51,2,1,2,1,NA,0,1,NA,1,NA,98,98,458,98,13,0,98
underestimator,underestimator,24,3,2,4,0,0.5531957,61,2,2,5,1,NA,0,1,NA,1,NA,99,99,459,99,24,0,99
underestimator,underestimator,21,3,2,1,0,0.4790392,56,2,2,1,NA,0,0,1,1,NA,0,100,100,460,100,21,0,100
underestimator,underestimator,14,3,1,4,1,0.7337558,38,2,4,3,0,NA,0,0,NA,0,NA,101,101,461,101,14,0,101
underestimator,underestimator,41,3,4,1,1,0.593818,46,2,1,3,1,NA,0,0,NA,1,NA,102,102,462,102,41,0,102
underestimator,underestimator,43,3,4,3,0,0.9518982,42,2,4,6,NA,0,0,1,-1,NA,0,103,103,463,103,43,0,103
underestimator,underestimator,21,3,2,1,0,0.5066811,66,2,2,1,NA,0,0,1,1,NA,0,104,104,464,104,21,0,104
underestimator,underestimator,34,3,3,4,1,0.8072592,36,2,4,6,NA,0,0,0,-1,NA,0,105,105,465,105,34,0,105
underestimator,underestimator,31,3,3,1,1,0.6419011,62,2,1,2,1,NA,0,0,NA,1,NA,106,106,466,106,31,0,106
underestimator,underestimator,13,3,1,3,0,0.540274,34,2,1,2,1,NA,0,1,NA,1,NA,107,107,467,107,13,0,107
underestimator,underestimator,24,3,2,4,0,1.0069124,68,2,2,5,1,NA,0,1,NA,1,NA,108,108,468,108,24,0,108
underestimator,underestimator,13,3,1,3,0,0.754388,64,2,1,2,1,NA,0,1,NA,1,NA,109,109,469,109,13,0,109
underestimator,underestimator,24,3,2,4,0,0.65484849999999994,49,2,2,5,1,NA,0,1,NA,1,NA,110,110,470,110,24,0,110
underestimator,underestimator,14,3,1,4,0,0.4171524,75,2,1,3,1,NA,0,1,NA,1,NA,111,111,471,111,14,0,111
underestimator,underestimator,21,3,2,1,0,0.4259296,64,2,2,1,NA,0,0,1,1,NA,0,112,112,472,112,21,0,112
underestimator,underestimator,41,3,4,1,1,0.8416755,88,2,1,3,1,NA,0,0,NA,1,NA,113,113,473,113,41,0,113
underestimator,underestimator,34,3,3,4,1,1.0393364,39,2,4,6,NA,0,0,0,-1,NA,0,114,114,474,114,34,0,114
underestimator,underestimator,23,3,2,3,0,0.4137303,65,2,2,4,1,NA,0,1,NA,1,NA,115,115,475,115,23,0,115
underestimator,underestimator,31,3,3,1,1,0.6648952,74,2,1,2,1,NA,0,0,NA,1,NA,116,116,476,116,31,0,116
underestimator,underestimator,41,3,4,1,1,0.5170935,55,2,1,3,1,NA,0,0,NA,1,NA,117,117,477,117,41,0,117
underestimator,underestimator,23,3,2,3,0,0.5655739,59,2,2,4,1,NA,0,1,NA,1,NA,118,118,478,118,23,0,118
underestimator,underestimator,14,3,1,4,1,0.5658862,40,2,4,3,0,NA,0,0,NA,0,NA,119,119,479,119,14,0,119
underestimator,underestimator,14,3,1,4,1,0.7368537,39,2,4,3,0,NA,0,0,NA,0,NA,120,120,480,120,14,0,120
underestimator,underestimator,41,3,4,1,0,0.7665242,45,2,4,3,0,NA,0,1,NA,0,NA,121,121,481,121,41,0,121
underestimator,underestimator,41,3,4,1,1,0.5784971,47,2,1,3,1,NA,0,0,NA,1,NA,122,122,482,122,41,0,122
underestimator,underestimator,31,3,3,1,1,0.5296887,27,2,1,2,1,NA,0,0,NA,1,NA,123,123,483,123,31,0,123
underestimator,underestimator,13,3,1,3,1,0.8671285,71,2,3,2,0,NA,0,0,NA,0,NA,124,124,484,124,13,0,124
underestimator,underestimator,12,3,1,2,1,0.7034035,64,2,2,1,NA,0,0,0,1,NA,0,125,125,485,125,12,0,125
underestimator,underestimator,34,3,3,4,0,1.2162894,46,2,3,6,NA,1,0,1,-1,NA,1,126,126,486,126,34,0,126
underestimator,underestimator,32,3,3,2,1,0.6796696,63,2,2,4,1,NA,0,0,NA,1,NA,127,127,487,127,32,0,127
underestimator,underestimator,23,3,2,3,0,0.4671047,53,2,2,4,1,NA,0,1,NA,1,NA,128,128,488,128,23,0,128
underestimator,underestimator,41,3,4,1,1,0.9101538,86,2,1,3,1,NA,0,0,NA,1,NA,129,129,489,129,41,0,129
underestimator,underestimator,31,3,3,1,1,0.4707061,49,2,1,2,1,NA,0,0,NA,1,NA,130,130,490,130,31,0,130
underestimator,underestimator,14,3,1,4,0,0.824026,55,2,1,3,1,NA,0,1,NA,1,NA,131,131,491,131,14,0,131
underestimator,underestimator,23,3,2,3,0,0.5642575,58,2,2,4,1,NA,0,1,NA,1,NA,132,132,492,132,23,0,132
underestimator,underestimator,14,3,1,4,0,0.7475213,45,2,1,3,1,NA,0,1,NA,1,NA,133,133,493,133,14,0,133
underestimator,underestimator,32,3,3,2,1,0.8416742,54,2,2,4,1,NA,0,0,NA,1,NA,134,134,494,134,32,0,134
underestimator,underestimator,34,3,3,4,1,1.6540777,46,2,4,6,NA,0,0,0,-1,NA,0,135,135,495,135,34,0,135
underestimator,underestimator,14,3,1,4,0,0.6118935,67,2,1,3,1,NA,0,1,NA,1,NA,136,136,496,136,14,0,136
underestimator,underestimator,32,3,3,2,1,0.3829788,58,2,2,4,1,NA,0,0,NA,1,NA,137,137,497,137,32,0,137
